File: Exp-Data_Prepared-Final/FTT-White/2018/Balsa_50kW_hor_Average.csv
Time (s),HRRPUA (kW/m2),Uc HRRPUA (kW/m2)
1.0,-0.801393,
2.0,-0.65969,-0.920379
3.0,-0.500745,-1.50327
4.0,-0.164187,-2.88796
5.0,0.0674498,2.61156
6.0,-0.343666,-2.16176
7.0,0.0808771,2.12825
8.0,0.592795,2.05775
9.0,0.712552,1.73399
10.0,0.418448,1.9305
11.0,0.0773448,2.86611
12.0,-0.0308111,-2.3535
13.0,0.522667,2.08059
14.0,0.930242,1.75261
15.0,0.856579,2.83615
16.0,0.29072,4.03459
17.0,2.66053,12.7525
18.0,10.8731,30.1462
19.0,27.0362,47.7182
20.0,49.7035,59.3174
21.0,77.7151,61.9298
22.0,106.85,53.2219
23.0,133.277,39.6821
24.0,150.292,22.2601
25.0,162.696,9.77367
26.0,170.367,3.52559
27.0,171.066,10.231
28.0,169.851,16.1053
29.0,165.453,19.7006
30.0,159.555,22.1423
31.0,154.073,22.0271
32.0,147.697,21.2581
33.0,140.041,18.7559
34.0,133.337,16.1318
35.0,128.006,15.9095
36.0,123.704,15.8683
37.0,119.383,15.3561
38.0,113.946,14.7064
39.0,110.963,12.9633
40.0,107.275,12.0798
41.0,104.485,12.7418
42.0,101.736,13.1603
43.0,99.9597,12.8655
44.0,97.1391,12.1333
45.0,94.8881,11.1381
46.0,93.0158,11.7363
47.0,90.8527,11.7054
48.0,89.6688,11.335
49.0,88.5392,10.3037
50.0,87.0667,10.0278
51.0,86.0097,8.28924
52.0,84.9422,8.5454
53.0,82.981,8.85449
54.0,83.1459,9.01365
55.0,82.455,8.1053
56.0,81.6763,7.39254
57.0,80.0468,6.93763
58.0,79.16,7.11568
59.0,78.1478,7.73779
60.0,77.4873,7.69219
61.0,77.2187,6.86852
62.0,75.8871,6.28722
63.0,74.5874,6.33378
64.0,73.3466,6.25095
65.0,73.2808,6.1431
66.0,72.9608,5.98007
67.0,71.8603,5.69015
68.0,71.169,4.53567
69.0,70.3237,4.98607
70.0,69.9614,4.70101
71.0,69.9351,6.1893
72.0,69.8623,5.9963
73.0,70.1121,5.76947
74.0,69.4357,5.91711
75.0,68.2987,5.33146
76.0,67.048,5.7584
77.0,66.5328,6.4533
78.0,66.1889,5.98205
79.0,66.0565,7.01459
80.0,64.94,5.93635
81.0,63.7972,5.17714
82.0,63.1743,5.65223
83.0,63.5012,6.71929
84.0,63.9205,6.92692
85.0,63.6572,6.67576
86.0,63.2555,5.79126
87.0,62.7744,4.94788
88.0,62.403,5.20233
89.0,62.1987,6.55009
90.0,62.6093,6.43918
91.0,61.9063,6.34506
92.0,61.4566,6.51397
93.0,61.3299,5.73971
94.0,60.5043,6.52474
95.0,60.4762,6.88123
96.0,60.6612,6.95879
97.0,60.3362,7.65953
98.0,59.9879,6.48568
99.0,59.2223,5.96027
100.0,59.2623,6.91596
101.0,59.428,7.32354
102.0,59.6116,7.05439
103.0,59.322,7.29394
104.0,59.5358,7.1509
105.0,59.1081,6.51435
106.0,59.6217,6.57762
107.0,60.1177,6.61004
108.0,60.4716,6.60323
109.0,60.0686,7.1676
110.0,59.213,6.94001
111.0,58.4796,6.72332
112.0,59.5282,6.99694
113.0,60.3946,7.19675
114.0,59.8357,7.1292
115.0,60.1265,7.80278
116.0,59.6712,8.11697
117.0,59.4361,8.41144
118.0,60.3005,8.96642
119.0,60.6303,8.84515
120.0,60.2705,9.26997
121.0,60.168,9.52956
122.0,60.7547,9.52269
123.0,60.8049,9.4288
124.0,62.5794,9.25739
125.0,62.8362,9.29557
126.0,62.0121,10.215
127.0,61.6446,10.3856
128.0,61.5013,10.4053
129.0,61.7656,10.0699
130.0,62.9434,9.48834
131.0,62.9904,9.3291
132.0,62.7068,10.4598
133.0,62.81,11.0435
134.0,61.9425,10.5471
135.0,62.3926,9.65512
136.0,63.2666,8.73893
137.0,63.8736,9.12949
138.0,63.8848,10.2647
139.0,64.2464,10.4635
140.0,63.8688,8.83156
141.0,64.0743,7.88393
142.0,64.5295,8.07419
143.0,64.2073,8.65284
144.0,64.5439,10.4373
145.0,64.3805,9.85863
146.0,64.2974,8.63058
147.0,65.3575,8.69478
148.0,65.7389,7.93762
149.0,64.9381,8.62444
150.0,65.3432,9.3987
151.0,65.1297,8.56616
152.0,64.3958,6.50779
153.0,64.7384,6.42709
154.0,65.1158,6.47374
155.0,64.1506,6.58766
156.0,63.2708,6.96536
157.0,62.5295,6.81388
158.0,63.0304,5.84968
159.0,63.1483,5.087
160.0,63.049,5.82878
161.0,61.6786,5.33348
162.0,60.2733,4.55528
163.0,59.912,4.17984
164.0,60.1741,4.22998
165.0,60.6905,4.84666
166.0,61.2005,5.26814
167.0,60.2291,4.89217
168.0,59.8936,4.5421
169.0,59.3989,5.55645
170.0,59.9635,7.08778
171.0,60.2567,7.38848
172.0,59.99,7.09368
173.0,58.6178,6.36099
174.0,58.0122,6.83963
175.0,57.5517,7.91532
176.0,57.4736,9.90437
177.0,57.8289,9.54192
178.0,57.8031,9.28275
179.0,56.8257,8.95173
180.0,56.0972,8.84617
181.0,56.125,10.5123
182.0,56.5799,12.0975
183.0,57.097,11.7683
184.0,56.8765,11.2096
185.0,56.3542,10.0913
186.0,55.3863,11.2715
187.0,55.6251,12.3445
188.0,55.7529,14.1254
189.0,55.7108,13.8163
190.0,55.3018,12.9346
191.0,54.9072,12.7021
192.0,54.069,13.4165
193.0,53.932,15.2117
194.0,54.2748,16.3044
195.0,54.1055,15.4953
196.0,53.7941,13.9851
197.0,53.5748,13.5689
198.0,53.5773,15.0095
199.0,53.9452,16.4261
200.0,54.0493,16.6277
201.0,54.0341,16.2275
202.0,53.4742,15.1007
203.0,52.8073,14.7054
204.0,52.1231,15.9708
205.0,52.4839,17.6671
206.0,52.3561,17.8483
207.0,52.2383,16.9556
208.0,51.6852,15.6502
209.0,50.7664,15.8862
210.0,50.3314,17.3128
211.0,50.9865,18.9532
212.0,51.2105,18.6911
213.0,50.9036,17.3061
214.0,50.466,16.4202
215.0,50.0542,16.4752
216.0,50.3421,18.0795
217.0,50.7547,19.4823
218.0,50.399,19.4575
219.0,49.902,18.2837
220.0,48.8465,17.3129
221.0,47.947,17.6345
222.0,47.5578,19.4082
223.0,47.9174,20.1052
224.0,48.487,20.0222
225.0,47.8728,18.7808
226.0,47.6227,17.9885
227.0,47.1796,18.4601
228.0,47.4593,20.2889
229.0,47.4226,20.8009
230.0,47.9773,20.7577
231.0,46.8974,18.8608
232.0,46.5871,18.1541
233.0,46.1995,18.7831
234.0,46.7925,20.2697
235.0,47.4664,20.6831
236.0,47.0328,19.6714
237.0,46.1916,18.2246
238.0,45.2264,17.4686
239.0,44.995,18.5977
240.0,45.1034,19.6806
241.0,44.9351,19.7423
242.0,44.9203,18.7165
243.0,44.4756,17.5057
244.0,43.9799,16.8994
245.0,43.8575,17.7063
246.0,44.2181,18.4235
247.0,44.6713,18.1787
248.0,44.1685,17.0818
249.0,43.3301,15.0902
250.0,42.913,15.1135
251.0,42.713,16.5721
252.0,42.9057,17.7518
253.0,43.0763,17.1583
254.0,42.1376,15.7675
255.0,41.6876,14.4914
256.0,41.1983,14.7395
257.0,41.0997,16.2388
258.0,41.215,17.0544
259.0,41.5116,16.6547
260.0,41.0514,14.962
261.0,40.5056,13.6801
262.0,40.1992,13.9998
263.0,40.6817,15.479
264.0,40.8662,15.682
265.0,40.8412,15.3643
266.0,40.393,13.8286
267.0,39.6684,12.967
268.0,38.7897,13.3071
269.0,38.8192,14.6151
270.0,39.0687,14.8137
271.0,39.4174,14.2816
272.0,38.619,12.434
273.0,38.1744,11.9642
274.0,38.5805,13.8094
275.0,39.1702,15.6967
276.0,39.0368,15.574
277.0,38.9252,14.8747
278.0,38.5583,13.228
279.0,38.236,12.7306
280.0,37.9793,13.4169
281.0,38.7974,14.7507
282.0,39.4856,14.1575
283.0,38.8582,13.3529
284.0,38.1153,11.7287
285.0,37.9046,11.9818
286.0,37.9386,13.3187
287.0,38.7085,14.119
288.0,38.8955,13.8155
289.0,38.7965,12.5016
290.0,38.7303,12.3361
291.0,38.4429,13.0135
292.0,38.9722,14.7014
293.0,38.9904,16.1341
294.0,38.8099,15.5049
295.0,38.6301,14.5662
296.0,38.4898,14.0546
297.0,38.3198,14.5565
298.0,38.9763,15.9568
299.0,39.4343,16.5869
300.0,39.5981,16.5063
301.0,38.7241,14.8704
302.0,38.3957,14.322
303.0,38.0139,15.3165
304.0,37.9999,16.3104
305.0,38.7445,16.7836
306.0,38.3916,15.722
307.0,38.1111,14.5476
308.0,37.6943,13.4193
309.0,37.5857,14.2798
310.0,37.8063,15.2141
311.0,37.9065,14.9974
312.0,37.46,13.8456
313.0,37.2265,12.5771
314.0,36.3426,12.6509
315.0,36.2779,13.292
316.0,36.3999,13.9374
317.0,36.3461,14.0094
318.0,35.7528,12.9101
319.0,35.2243,11.0772
320.0,35.2251,11.2421
321.0,35.3573,12.3884
322.0,35.582,13.1509
323.0,35.0174,13.1916
324.0,34.6546,11.5057
325.0,34.1108,9.85035
326.0,33.0967,9.89014
327.0,33.6591,11.4592
328.0,33.9143,11.456
329.0,33.7812,10.9406
330.0,33.0978,9.27078
331.0,32.7266,8.21279
332.0,32.8231,8.94158
333.0,33.3128,10.5842
334.0,33.442,10.7135
335.0,33.5795,10.3902
336.0,33.1449,8.63167
337.0,32.4229,7.51687
338.0,31.9046,8.85113
339.0,32.3798,10.3382
340.0,32.4863,10.1823
341.0,32.2782,8.965
342.0,31.9465,7.69296
343.0,31.5684,7.07429
344.0,31.6186,8.70298
345.0,32.0646,9.80103
346.0,32.5234,9.73541
347.0,32.3539,8.75442
348.0,31.8235,6.91128
349.0,31.5228,7.29543
350.0,31.5231,9.10645
351.0,31.6592,9.72868
352.0,31.7155,11.1096
353.0,31.5351,9.89546
354.0,31.5169,8.26114
355.0,31.1694,8.11853
356.0,31.1521,9.82242
357.0,31.0987,10.4859
358.0,30.9338,9.71788
359.0,30.4731,7.48197
360.0,30.3671,5.97546
361.0,29.7053,6.49585
362.0,29.7003,8.83748
363.0,29.6366,9.57017
364.0,29.389,8.8044
365.0,29.3559,7.00109
366.0,29.1895,5.60422
367.0,29.0973,6.72687
368.0,29.2647,8.82794
369.0,28.6317,8.96646
370.0,28.6496,10.2632
371.0,31.618,3.12237
372.0,31.2394,1.95634
373.0,32.8366,2.34129
374.0,34.5963,2.62501
375.0,34.3505,1.41866
376.0,32.8995,1.73034
377.0,31.8261,1.0114
378.0,32.4715,1.52942
379.0,33.7658,2.50181
380.0,34.9871,1.87249
381.0,34.8609,2.54991
382.0,33.5379,3.9664
383.0,32.5454,3.20692
384.0,33.1694,2.2077
385.0,34.2516,0.508856
386.0,34.9133,1.14537
387.0,34.2495,3.42681
388.0,32.1905,2.74143
389.0,31.1679,0.958971
390.0,31.8275,1.47017
391.0,32.8514,2.70189
392.0,33.4064,1.02838
393.0,32.1681,1.70497
394.0,30.2797,1.67949
395.0,29.2567,0.48158
396.0,30.2336,1.27386
397.0,32.371,1.70746
398.0,32.6888,0.715524
399.0,31.4742,2.87287
400.0,29.8048,2.65555
401.0,29.636,1.29716
402.0,30.4093,1.45693
403.0,32.241,0.951303
404.0,31.91,1.56186
405.0,30.6288,3.23596
406.0,29.2922,2.09551
407.0,29.1383,0.974843
408.0,30.1813,0.964548
409.0,31.6607,0.839991
410.0,30.9866,1.60468
411.0,29.5695,2.75852
412.0,28.5036,1.62925
413.0,28.5741,1.02301
414.0,30.255,1.52234
415.0,31.0021,1.09552
416.0,30.8489,2.30919
417.0,29.6534,2.85357
418.0,28.5722,1.32038
419.0,29.064,0.425699
420.0,30.8506,1.22621
421.0,31.5171,0.295096
422.0,30.8485,2.41314
423.0,29.3734,2.40394
424.0,28.7917,1.55099
425.0,29.5161,1.37903
426.0,31.2555,1.55781
427.0,31.7926,0.972048
428.0,31.4772,2.75522
429.0,30.33,2.07599
430.0,30.1836,0.569307
431.0,31.6508,1.21834
432.0,34.0102,1.99262
433.0,34.002,0.18817
434.0,32.5832,1.83841
435.0,31.3556,1.31664
436.0,31.0262,0.916543
437.0,32.2351,2.08513
438.0,33.8736,2.2814
439.0,33.0251,0.808909
440.0,31.4953,1.38964
441.0,30.4157,1.08978
442.0,30.0718,0.499195
443.0,31.6427,1.80812
444.0,33.1182,1.20112
445.0,31.8619,0.685409
446.0,29.6314,0.402724
447.0,28.8515,0.913368
448.0,29.4535,1.10229
449.0,31.5066,1.366
450.0,32.7,0.988644
451.0,31.5276,0.985543
452.0,29.9618,1.0588
453.0,29.1367,1.01358
454.0,29.8817,1.41782
455.0,31.943,1.85062
456.0,32.2139,1.1825
457.0,29.8976,0.397262
458.0,28.8104,0.18886
459.0,28.705,0.733182
460.0,29.8519,1.63845
461.0,31.7905,1.80663
462.0,31.985,0.575962
463.0,30.75,0.861231
464.0,29.3513,0.130772
465.0,29.2995,0.455299
466.0,30.4802,1.06248
467.0,32.5275,1.13572
468.0,32.6138,0.220474
469.0,31.4004,0.215327
470.0,30.3084,1.045
471.0,30.4599,1.11532
472.0,32.2773,1.57468
473.0,33.9607,1.22576
474.0,33.0637,0.466766
475.0,31.2413,0.196179
476.0,29.6694,0.440397
477.0,30.5054,0.699828
478.0,33.151,0.945995
479.0,34.4693,1.25263
480.0,32.9858,2.29107
481.0,31.2764,2.27681
482.0,30.7317,1.85864
483.0,31.2511,0.67672
484.0,33.0186,0.338815
485.0,33.9769,0.758466
486.0,32.3255,1.24016
487.0,30.3151,1.09957
488.0,29.3962,0.121036
489.0,29.8387,1.37975
490.0,32.1414,1.36845
491.0,32.8031,0.0653783
492.0,30.7337,0.192603
493.0,29.2386,
494.0,29.4481,
495.0,31.194,
496.0,33.7284,
497.0,32.6486,
498.0,30.2387,
499.0,29.3103,
500.0,29.352,
501.0,31.1564,
502.0,32.8636,
503.0,30.4303,
504.0,28.2503,
505.0,27.7437,
506.0,28.6232,
507.0,30.9716,
508.0,31.5194,
509.0,29.9421,
510.0,28.216,
511.0,27.7893,
512.0,28.9171,
513.0,31.1012,
514.0,31.6736,
515.0,29.6892,
516.0,28.0177,
517.0,26.7883,
518.0,28.1141,
519.0,30.4597,