File: Exp-Data_Prepared-Final/FTT-White/2018/Cypress_50kW_hor_Average.csv
Time (s),HRRPUA (kW/m2),Uc HRRPUA (kW/m2)
0.0,1.73099,
1.0,-0.609839,
2.0,-1.78213,
3.0,-1.31482,
4.0,0.66544,0.0297145
5.0,0.9732,2.06782
6.0,-0.330263,-2.09616
7.0,-0.908796,-1.3189
8.0,0.0556518,2.73995
9.0,0.889171,1.88885
10.0,1.1478,0.731036
11.0,0.316874,1.39243
12.0,-0.838795,-0.981469
13.0,-0.717983,-1.84109
14.0,0.618184,3.42875
15.0,1.49898,2.61952
16.0,1.54984,0.945251
17.0,0.686249,0.912852
18.0,-0.377868,-0.938901
19.0,-0.42093,-2.07076
20.0,0.961073,3.27539
21.0,1.99916,3.13943
22.0,2.16328,2.65186
23.0,1.26702,1.80548
24.0,0.599877,1.82243
25.0,1.29535,3.47071
26.0,2.20803,4.36631
27.0,2.62395,4.89826
28.0,2.51386,4.07014
29.0,1.43669,3.12321
30.0,0.620068,2.39183
31.0,1.34616,2.72339
32.0,2.32879,3.3659
33.0,3.08934,3.61669
34.0,3.52023,4.08592
35.0,2.9998,3.6713
36.0,2.92844,3.35124
37.0,3.6398,3.68753
38.0,4.26518,4.81987
39.0,4.46263,5.35295
40.0,4.40776,5.2011
41.0,6.59794,11.1463
42.0,14.153,21.9191
43.0,23.4735,33.6154
44.0,37.8968,42.4068
45.0,60.146,46.0494
46.0,82.5481,43.2198
47.0,105.444,34.9667
48.0,128.506,26.0204
49.0,147.433,16.1571
50.0,163.145,11.633
51.0,173.336,12.4149
52.0,177.567,7.94908
53.0,177.017,7.44108
54.0,180.376,10.7997
55.0,177.859,14.2391
56.0,177.12,13.4982
57.0,174.53,12.6532
58.0,169.124,13.3549
59.0,164.656,16.3945
60.0,160.41,16.3862
61.0,156.008,15.5297
62.0,151.81,12.6066
63.0,146.012,9.47875
64.0,140.889,7.77565
65.0,137.789,7.8786
66.0,134.335,9.28296
67.0,130.732,7.65619
68.0,129.579,5.15515
69.0,127.124,3.58434
70.0,124.186,3.84912
71.0,120.199,4.82426
72.0,119.822,5.12632
73.0,119.002,4.52394
74.0,117.088,4.53415
75.0,116.157,1.17032
76.0,113.698,4.14533
77.0,112.378,6.69581
78.0,110.324,6.29861
79.0,110.123,5.20751
80.0,109.761,2.71267
81.0,107.692,1.0606
82.0,105.186,2.24372
83.0,104.104,6.11343
84.0,105.013,8.322
85.0,103.415,7.23837
86.0,102.613,4.35855
87.0,101.126,4.08748
88.0,99.1251,5.39053
89.0,99.6131,6.02634
90.0,99.8989,5.91452
91.0,100.577,3.90904
92.0,99.3747,3.57442
93.0,98.1841,3.69875
94.0,96.0873,4.40324
95.0,96.0365,5.84657
96.0,95.6865,3.27381
97.0,96.7159,3.74794
98.0,95.4618,4.86553
99.0,94.3349,5.21521
100.0,93.0893,4.90962
101.0,92.6869,5.65342
102.0,93.3477,4.82378
103.0,92.3996,2.61736
104.0,91.4884,3.10835
105.0,90.3198,4.3229
106.0,89.7894,3.88925
107.0,90.2424,3.02427
108.0,90.2266,1.67592
109.0,89.8955,1.76926
110.0,89.2298,4.16755
111.0,86.5985,4.4243
112.0,87.602,4.3452
113.0,88.6679,3.02631
114.0,89.5152,1.87106
115.0,87.9774,4.74935
116.0,86.521,5.75569
117.0,85.4324,4.16176
118.0,85.2892,3.39433
119.0,85.7555,2.3661
120.0,85.8208,0.563246
121.0,85.303,1.8837
122.0,83.7733,2.34241
123.0,82.6739,1.28112
124.0,82.8838,1.25553
125.0,83.74,2.22128
126.0,84.7007,1.5241
127.0,83.6069,1.36374
128.0,82.9394,0.476036
129.0,81.4438,1.30654
130.0,81.5506,3.50733
131.0,82.6842,3.67219
132.0,81.6971,2.50057
133.0,80.9329,0.826962
134.0,78.912,0.97707
135.0,77.9279,0.90855
136.0,77.8503,2.95072
137.0,78.9566,2.7349
138.0,78.5833,2.61182
139.0,78.8041,2.41824
140.0,77.1008,0.267761
141.0,76.2809,1.8967
142.0,77.8555,4.22254
143.0,78.5063,4.07324
144.0,79.3774,3.02732
145.0,78.3525,1.41186
146.0,76.0581,0.494919
147.0,76.5196,1.18752
148.0,77.2986,3.85359
149.0,77.5985,3.79187
150.0,78.3242,3.89298
151.0,75.9439,2.9153
152.0,74.8457,1.61462
153.0,75.7863,2.42377
154.0,76.6204,4.25867
155.0,77.8502,4.79996
156.0,76.6698,3.363
157.0,75.3043,2.61984
158.0,75.474,2.72497
159.0,75.5893,3.63109
160.0,76.025,4.37274
161.0,76.7131,5.70247
162.0,76.1893,3.84603
163.0,75.8159,3.23401
164.0,75.3634,2.62647
165.0,74.4907,4.0351
166.0,76.157,4.31036
167.0,75.9591,4.09219
168.0,75.901,3.6162
169.0,74.0536,2.43276
170.0,74.1828,2.69913
171.0,74.7473,3.28466
172.0,75.2975,3.62242
173.0,75.5001,3.96219
174.0,74.9021,4.5237
175.0,74.6348,3.2003
176.0,74.4462,2.43953
177.0,74.5074,2.65397
178.0,75.1104,3.40104
179.0,74.8686,3.35959
180.0,73.6987,3.37365
181.0,73.1413,1.33179
182.0,72.711,1.27518
183.0,73.4763,1.46672
184.0,73.9062,3.85303
185.0,73.864,4.49667
186.0,73.8277,3.6117
187.0,72.7463,2.80223
188.0,73.5857,1.43745
189.0,74.38,1.43088
190.0,75.1998,3.48938
191.0,75.5967,5.03212
192.0,74.7698,5.1893
193.0,74.0551,4.14039
194.0,74.2363,3.03546
195.0,76.1685,2.96694
196.0,76.6435,4.1885
197.0,75.8205,5.72901
198.0,74.2105,5.23284
199.0,74.1789,2.94239
200.0,76.0111,1.23257
201.0,74.7305,1.98525
202.0,75.5735,2.31973
203.0,75.0786,2.90764
204.0,74.2872,1.56889
205.0,74.2217,0.808662
206.0,74.1792,2.54045
207.0,76.2015,3.10222
208.0,75.7204,4.69857
209.0,74.6333,5.94043
210.0,74.3951,4.95492
211.0,74.2785,4.82998
212.0,75.0179,5.60402
213.0,75.439,5.9008
214.0,75.3725,5.56035
215.0,74.4306,4.64645
216.0,73.8632,3.8811
217.0,73.9678,3.66413
218.0,74.2098,3.4501
219.0,74.7432,5.173
220.0,74.3759,5.24042
221.0,73.9899,3.30029
222.0,72.7588,3.19241
223.0,73.5389,4.48561
224.0,73.7798,4.93348
225.0,74.3164,4.29023
226.0,73.4968,3.14286
227.0,71.3725,2.75663
228.0,71.8115,1.99352
229.0,72.1942,2.67975
230.0,72.307,3.58828
231.0,73.9009,4.3769
232.0,72.2721,3.55142
233.0,71.01,2.70782
234.0,71.1658,0.839213
235.0,72.5232,2.95693
236.0,73.564,3.43114
237.0,72.8619,2.66281
238.0,73.357,1.76498
239.0,72.5713,0.509733
240.0,72.955,2.00048
241.0,73.3313,2.99273
242.0,74.6351,3.4317
243.0,73.6511,1.60467
244.0,72.4526,1.10664
245.0,71.7733,0.865133
246.0,72.0212,2.35656
247.0,73.8101,3.17582
248.0,73.8443,2.58513
249.0,74.3428,1.57224
250.0,73.2153,2.71852
251.0,72.3182,1.1695
252.0,72.8646,1.29629
253.0,73.835,2.25459
254.0,74.1989,3.46246
255.0,74.4729,4.47047
256.0,74.0545,4.02187
257.0,73.3363,3.79279
258.0,74.4547,4.04058
259.0,75.7132,5.87739
260.0,76.4954,7.16628
261.0,76.6782,6.9927
262.0,74.3965,5.2285
263.0,75.0985,3.93095
264.0,76.0999,4.16162
265.0,76.2236,4.93115
266.0,76.2426,5.79462
267.0,75.5909,4.65995
268.0,73.9548,2.92416
269.0,73.3174,1.63613
270.0,74.128,1.58288
271.0,74.8056,3.26256
272.0,74.8086,2.46151
273.0,73.2887,2.09114
274.0,72.7763,0.956134
275.0,73.2791,1.46353
276.0,74.3694,2.91177
277.0,74.9793,2.5776
278.0,75.4534,0.540003
279.0,74.5543,1.48672
280.0,73.2155,1.82149
281.0,73.8616,3.87775
282.0,74.8789,3.9276
283.0,75.2523,2.43798
284.0,75.4767,1.34562
285.0,74.2953,0.530899
286.0,74.1643,3.11956
287.0,74.9338,4.73445
288.0,75.6993,3.90241
289.0,76.274,2.99011
290.0,75.6076,0.927464
291.0,74.4858,1.40571
292.0,73.9383,2.08919
293.0,75.5961,4.5052
294.0,77.2423,5.57279
295.0,77.3199,3.46784
296.0,76.3143,2.47462
297.0,74.6518,3.27259
298.0,75.0147,5.23613
299.0,77.0342,6.86282
300.0,77.4672,6.15376
301.0,77.5179,4.10624
302.0,77.5148,2.46006
303.0,76.4522,3.8891
304.0,76.9997,5.31482
305.0,77.966,7.66117
306.0,79.3099,6.95429
307.0,79.7918,5.17928
308.0,78.1279,4.58557
309.0,78.8562,5.81945
310.0,78.7959,8.17952
311.0,79.5855,8.82184
312.0,79.9699,7.42075
313.0,80.7363,5.0795
314.0,79.679,5.20072
315.0,78.5327,7.17168
316.0,78.7062,8.37815
317.0,79.6102,8.56191
318.0,79.4964,5.5939
319.0,79.701,4.40218
320.0,78.6109,5.45086
321.0,78.2417,6.92844
322.0,78.7945,8.43464
323.0,79.9738,8.34226
324.0,81.1213,6.22571
325.0,79.2886,4.3669
326.0,78.6607,4.15553
327.0,78.5668,5.39793
328.0,79.6018,7.33421
329.0,80.1735,6.15984
330.0,80.5803,4.7573
331.0,79.9572,2.81199
332.0,79.5616,3.5291
333.0,79.2094,6.3245
334.0,79.4801,7.68906
335.0,80.7913,6.88335
336.0,79.8592,4.11276
337.0,79.325,3.64661
338.0,78.6098,4.70025
339.0,78.6217,7.28873
340.0,81.0981,8.42849
341.0,82.4372,6.8386
342.0,82.8898,4.69402
343.0,81.4488,4.18693
344.0,80.7296,4.81573
345.0,80.4235,7.17444
346.0,82.5542,8.31623
347.0,82.3857,6.41016
348.0,82.2886,4.67273
349.0,81.7335,4.90409
350.0,81.5367,5.39487
351.0,81.6992,6.54863
352.0,84.3696,8.0264
353.0,85.1425,6.85347
354.0,84.8031,4.81217
355.0,85.2465,5.51282
356.0,83.9939,7.10463
357.0,84.5778,8.43881
358.0,86.1271,8.25862
359.0,87.0899,6.76281
360.0,86.2607,5.23502
361.0,85.2122,5.01708
362.0,85.4292,7.34621
363.0,86.1308,8.98975
364.0,86.914,8.84102
365.0,86.8504,6.853
366.0,86.5654,3.97729
367.0,86.9606,5.67994
368.0,86.7289,7.50373
369.0,87.6498,8.37445
370.0,89.2896,8.43985
371.0,90.1719,6.2143
372.0,89.7471,3.9937
373.0,88.4533,6.69287
374.0,89.146,7.3875
375.0,90.8146,9.13824
376.0,91.7086,8.68098
377.0,93.3804,6.78123
378.0,92.2078,5.09631
379.0,91.2843,7.48645
380.0,91.7018,10.5909
381.0,94.0995,9.78157
382.0,95.1298,8.81184
383.0,94.6779,7.01442
384.0,94.2358,6.09532
385.0,94.9563,7.79776
386.0,94.8927,10.2281
387.0,97.1788,9.12497
388.0,97.9725,8.97506
389.0,98.0661,6.61777
390.0,97.5572,7.67891
391.0,99.2071,8.9792
392.0,99.1067,10.093
393.0,101.074,10.4416
394.0,102.443,8.1156
395.0,101.688,5.76713
396.0,101.156,5.95025
397.0,100.769,9.22985
398.0,102.067,9.923
399.0,103.754,9.26441
400.0,104.019,7.62717
401.0,104.33,6.65147
402.0,103.937,6.5857
403.0,104.454,9.82005
404.0,106.534,10.9132
405.0,107.529,11.0412
406.0,108.877,10.1735
407.0,107.599,9.28303
408.0,108.109,9.74617
409.0,107.883,11.1221
410.0,110.153,11.4485
411.0,113.047,12.9905
412.0,112.657,11.8731
413.0,111.685,9.53608
414.0,111.476,10.9839
415.0,112.358,13.1063
416.0,113.735,14.3635
417.0,115.472,12.8474
418.0,115.213,10.2362
419.0,115.031,11.5405
420.0,116.472,13.8297
421.0,116.939,14.0591
422.0,117.725,11.937
423.0,117.423,11.7193
424.0,117.75,9.69914
425.0,117.08,9.70888
426.0,117.584,12.2207
427.0,119.043,13.9673
428.0,120.308,13.7921
429.0,120.236,12.5749
430.0,120.93,10.1225
431.0,120.151,10.0855
432.0,121.643,10.9946
433.0,124.431,10.3914
434.0,124.765,12.7176
435.0,125.579,11.5866
436.0,125.673,9.83081
437.0,125.452,10.2572
438.0,127.825,10.3634
439.0,129.548,11.1667
440.0,130.987,12.1501
441.0,131.607,11.9021
442.0,131.353,11.7985
443.0,130.729,11.2558
444.0,131.552,12.9298
445.0,133.205,15.1817
446.0,133.891,13.2016
447.0,135.454,11.4331
448.0,134.924,11.0178
449.0,134.26,11.215
450.0,137.12,11.2885
451.0,139.075,12.922
452.0,139.016,13.1263
453.0,140.282,13.2102
454.0,140.589,13.2865
455.0,139.399,12.7257
456.0,141.686,13.7864
457.0,144.464,13.3646
458.0,144.685,13.2819
459.0,142.949,12.3017
460.0,141.588,11.464
461.0,144.358,12.0723
462.0,146.374,11.7941
463.0,147.75,16.4722
464.0,147.835,14.6679
465.0,147.814,12.1246
466.0,148.25,13.8314
467.0,147.104,13.3498
468.0,148.407,14.088
469.0,149.393,13.5839
470.0,149.42,11.7306
471.0,148.909,8.97615
472.0,149.091,12.6017
473.0,150.887,16.1216
474.0,152.182,14.9095
475.0,153.327,14.0768
476.0,154.289,14.4058
477.0,155.625,13.6011
478.0,152.919,12.7768
479.0,155.127,14.4412
480.0,156.513,12.5812
481.0,156.035,11.2953
482.0,156.843,13.5093
483.0,155.923,10.9708
484.0,158.261,11.3177
485.0,158.411,11.8704
486.0,160.514,11.7659
487.0,161.445,12.5814
488.0,161.829,13.1371
489.0,160.627,13.1143
490.0,158.256,12.9698
491.0,161.197,13.4135
492.0,160.322,16.8071
493.0,161.599,12.5161
494.0,160.73,12.9806
495.0,159.961,14.6174
496.0,161.535,13.2732
497.0,162.534,10.8597
498.0,160.84,14.757
499.0,163.566,13.3977
500.0,165.355,12.3607
501.0,163.317,12.2403
502.0,162.897,12.2628
503.0,165.131,12.5245
504.0,165.247,13.0169
505.0,165.937,13.6614
506.0,162.55,13.62
507.0,161.761,12.0145
508.0,162.386,11.7398
509.0,163.294,12.9862
510.0,164.423,11.8205
511.0,161.856,11.7871
512.0,162.137,13.5149
513.0,162.517,13.4287
514.0,161.339,13.5992
515.0,163.608,16.5279
516.0,162.418,16.2262
517.0,161.919,17.2633
518.0,162.181,17.4217
519.0,160.761,14.3613
520.0,160.333,12.9337
521.0,162.051,16.0117
522.0,159.288,17.3163
523.0,159.784,18.7343
524.0,157.148,17.8083
525.0,156.591,15.5113
526.0,156.598,13.4997
527.0,157.343,15.2753
528.0,157.308,17.2828
529.0,156.429,20.7046
530.0,154.028,16.9157
531.0,154.906,16.7097
532.0,154.657,15.8423
533.0,154.463,18.0585
534.0,154.71,21.8513
535.0,153.739,21.9291
536.0,152.244,19.9181
537.0,151.183,21.3622
538.0,151.772,17.9394
539.0,153.306,19.9937
540.0,150.57,22.8034
541.0,147.485,23.4056
542.0,145.726,22.841
543.0,145.217,21.6381
544.0,145.911,21.7872
545.0,146.109,23.5211
546.0,144.574,25.1175
547.0,142.351,27.2938
548.0,140.759,23.7431
549.0,139.507,21.9466
550.0,140.941,24.1389
551.0,139.524,24.8087
552.0,138.632,26.8771
553.0,136.176,28.3334
554.0,133.995,25.1265
555.0,134.633,23.4564
556.0,136.267,23.8794
557.0,133.148,24.056
558.0,132.263,24.8893
559.0,130.244,25.8667
560.0,127.495,25.0105
561.0,128.589,22.0026
562.0,129.087,24.1834
563.0,125.801,24.6793
564.0,123.912,24.1277
565.0,122.608,23.4793
566.0,120.963,21.4349
567.0,120.68,21.6444
568.0,121.62,22.1518
569.0,119.702,24.6186
570.0,118.14,26.7018
571.0,115.029,24.0492
572.0,113.338,20.5099
573.0,114.037,19.2076
574.0,112.686,20.6519
575.0,111.419,23.5539
576.0,109.296,24.4188
577.0,108.432,22.0331
578.0,107.443,19.9677
579.0,106.841,18.521
580.0,105.744,18.9696
581.0,103.437,21.071
582.0,100.932,19.7824
583.0,99.1436,17.7453
584.0,98.7881,15.7375
585.0,98.6987,16.8282
586.0,97.6861,17.0586
587.0,96.0812,17.4027
588.0,93.8554,15.9835
589.0,92.8653,13.9467
590.0,93.2496,12.0943
591.0,93.9343,11.9364
592.0,93.1156,15.0305
593.0,91.5552,16.6894
594.0,89.1511,15.995
595.0,88.9362,13.6974
596.0,89.0899,11.813
597.0,89.3813,12.8396
598.0,89.3845,14.2503
599.0,87.7466,15.559
600.0,85.6843,14.6893
601.0,84.1624,13.1826
602.0,85.2503,11.7635
603.0,85.1375,11.9629
604.0,83.8094,13.2673
605.0,82.4341,14.5113
606.0,80.5632,13.1047
607.0,80.1289,10.9962
608.0,80.0628,9.35352
609.0,80.1067,10.1172
610.0,78.749,11.9683
611.0,76.8267,11.3825
612.0,75.6719,9.1447
613.0,75.8733,8.09245
614.0,76.4677,7.67888
615.0,75.3878,8.69313
616.0,74.0712,10.0602
617.0,71.862,8.4616
618.0,71.0915,7.52731
619.0,71.2681,6.21626
620.0,72.3889,5.27064
621.0,71.3052,7.25749
622.0,70.3861,8.67963
623.0,69.311,8.15362
624.0,69.3435,7.95546
625.0,69.1285,6.28574
626.0,70.2028,5.67906
627.0,69.9355,7.42519
628.0,68.8159,8.22776
629.0,67.3168,7.50076
630.0,65.7671,6.32777
631.0,66.8792,5.67566
632.0,66.3642,5.0387
633.0,65.2969,7.51983
634.0,63.6684,7.93657
635.0,61.8447,6.74438
636.0,61.6046,5.68915
637.0,62.7863,4.80103
638.0,62.3459,5.59367
639.0,60.9968,7.21291
640.0,60.0845,8.47441
641.0,58.7003,5.91791
642.0,59.086,4.7817
643.0,60.5882,3.99737
644.0,59.7251,3.394
645.0,58.7341,5.64558
646.0,55.8801,4.1354
647.0,54.0643,3.72093
648.0,54.0031,3.0133
649.0,55.3646,2.18007
650.0,55.2857,2.27317
651.0,54.1839,4.09367
652.0,52.434,4.2949
653.0,51.4859,3.84582
654.0,52.4399,4.07196
655.0,52.8899,3.03035
656.0,52.6537,2.48725
657.0,51.4185,2.67243
658.0,49.4567,3.26899
659.0,49.3267,3.68973
660.0,49.8117,3.75356
661.0,49.9237,2.0302
662.0,49.961,1.54911
663.0,48.8844,3.1597
664.0,46.8545,2.57812
665.0,47.2662,3.09767
666.0,47.8636,2.48745
667.0,48.469,0.684834
668.0,48.4371,1.47555
669.0,47.2054,2.80891
670.0,46.6515,3.28851
671.0,45.9011,2.64607
672.0,47.478,2.96308
673.0,47.4439,1.106
674.0,46.2637,1.63868
675.0,44.7807,2.36322
676.0,43.8773,2.66884
677.0,44.8773,3.57998
678.0,45.6125,2.86986
679.0,45.9122,1.32503
680.0,44.4606,3.82181
681.0,42.7285,3.89823
682.0,41.8857,3.75892
683.0,42.6634,4.05266
684.0,43.343,2.53872
685.0,43.2563,2.26266
686.0,42.2068,3.44762
687.0,40.7521,3.84042
688.0,40.5994,3.33446
689.0,41.1584,2.54384
690.0,41.7244,1.3542
691.0,41.6779,2.37267
692.0,40.6654,3.87076
693.0,39.3616,3.82298
694.0,39.4039,3.48808
695.0,40.5783,3.77053
696.0,41.4209,2.07571
697.0,41.6865,4.35645
698.0,40.1552,4.90666
699.0,39.175,4.11271
700.0,39.1916,3.20414
701.0,40.628,2.44844
702.0,40.8993,1.1066
703.0,40.7407,2.99082
704.0,39.2429,3.25384
705.0,38.4817,2.94533
706.0,39.4993,4.00123
707.0,39.781,3.30094
708.0,40.6801,2.87009
709.0,40.0843,4.80536
710.0,38.4628,4.96782
711.0,38.4116,3.23171
712.0,39.6246,2.48867
713.0,40.8958,1.11403
714.0,40.7009,2.14207
715.0,40.2234,3.72975
716.0,39.2221,2.93261
717.0,38.4978,1.75096
718.0,39.354,1.32647
719.0,40.1275,0.411535
720.0,40.0178,2.36475
721.0,38.3181,3.77783
722.0,37.0749,2.59491
723.0,36.7023,1.38859
724.0,36.962,1.45492
725.0,38.5928,0.84839
726.0,38.1353,2.88531
727.0,36.9425,3.55544
728.0,36.3577,2.23903
729.0,36.2094,0.336376
730.0,37.6355,0.931954
731.0,38.1024,1.44043
732.0,37.9508,2.85237
733.0,36.8004,3.06035
734.0,35.6204,1.82513
735.0,35.9899,0.548052
736.0,37.1635,0.349204
737.0,37.7965,2.29108
738.0,37.5612,3.47465
739.0,36.4638,2.65076
740.0,35.5411,1.18619
741.0,37.0591,0.435175
742.0,38.4565,1.58216
743.0,38.3646,2.59172
744.0,37.4589,3.97886
745.0,36.4803,3.08838
746.0,36.1645,1.72785
747.0,36.6867,1.20195
748.0,37.3773,1.78769
749.0,37.6492,2.44035
750.0,36.5758,3.28687
751.0,35.2951,2.87928
752.0,34.8138,1.09536
753.0,35.9276,0.453881
754.0,36.4263,1.69102
755.0,36.6291,3.91743
756.0,35.4977,5.22694
757.0,33.9546,4.48767
758.0,34.1265,3.22396
759.0,35.5504,1.83692
760.0,35.695,1.96536
761.0,35.3872,4.25689
762.0,34.4939,4.83012
763.0,33.6809,2.74996
764.0,34.1078,0.938053
765.0,35.11,0.049608
766.0,36.0167,2.05948
767.0,35.9457,3.92601
768.0,34.6732,3.44623
769.0,33.8197,1.61653
770.0,34.4178,1.05895
771.0,35.1319,1.05776
772.0,35.5652,1.11035
773.0,34.5355,3.1078
774.0,34.0351,2.97538
775.0,33.7248,1.79679
776.0,34.4615,1.81352
777.0,35.59,0.0714212
778.0,35.7605,2.24232
779.0,35.1576,3.54317
780.0,34.0054,2.86896
781.0,33.6138,1.51928
782.0,34.3396,0.682191
783.0,35.3072,1.20106
784.0,35.6585,3.41772
785.0,34.4453,5.90724
786.0,33.0684,4.79509
787.0,32.6239,2.34864
788.0,33.994,0.893359
789.0,34.4906,2.93309
790.0,34.6619,6.72833
791.0,34.4824,8.01801
792.0,33.6844,5.46146
793.0,34.5321,2.78558
794.0,35.2517,1.3961
795.0,35.1187,3.11376
796.0,35.414,5.5418
797.0,34.2886,4.67909
798.0,33.5546,2.677
799.0,34.0707,0.106927
800.0,35.0047,1.12878
801.0,34.9918,1.75999
802.0,35.3003,4.62371
803.0,34.4354,5.39633
804.0,33.258,2.72261
805.0,33.7765,0.18093
806.0,34.7734,0.530829
807.0,34.1811,3.74142
808.0,33.1994,6.64891
809.0,32.96,5.48731
810.0,29.4934,
811.0,32.7121,
812.0,33.5458,
813.0,31.0369,
814.0,30.39,
815.0,30.7337,
816.0,32.199,
817.0,34.8255,
818.0,33.4098,
819.0,30.5658,
820.0,30.5624,
821.0,30.1128,
822.0,31.9258,
823.0,33.8206,