File: Exp-Data_Prepared-Final/FTT-White/2018/Ebony_50kW_hor_Average.csv
Time (s),HRRPUA (kW/m2),Uc HRRPUA (kW/m2)
0.0,-0.383942,-1.42561
1.0,0.589862,2.913
2.0,0.393859,2.33114
3.0,-0.0126415,-2.07484
4.0,-0.398415,-2.8692
5.0,-0.786155,-2.12735
6.0,-0.147543,-1.14498
7.0,0.86302,2.35955
8.0,0.754749,2.11999
9.0,0.258349,3.38742
10.0,-0.170401,-4.18111
11.0,-0.116116,-2.52759
12.0,1.01404,0.384453
13.0,2.07681,0.696614
14.0,1.4198,0.726543
15.0,0.598355,2.51294
16.0,-0.0613539,-2.19701
17.0,-0.119508,-0.565711
18.0,0.943333,1.99139
19.0,1.44009,2.0732
20.0,0.720593,0.494264
21.0,0.192049,2.46493
22.0,-0.373134,-1.99877
23.0,0.236205,0.554139
24.0,1.33369,2.76321
25.0,1.73113,2.79384
26.0,1.11744,1.39053
27.0,0.449588,0.755322
28.0,0.165457,1.30834
29.0,0.450149,3.7284
30.0,1.39129,5.51799
31.0,1.19412,4.89421
32.0,0.651093,2.73922
33.0,0.458633,1.67995
34.0,0.020021,1.24284
35.0,0.667445,2.86646
36.0,1.67068,3.77879
37.0,1.21119,2.2584
38.0,0.766974,1.52678
39.0,0.0670281,2.47896
40.0,-0.105069,-0.755829
41.0,1.19779,1.39266
42.0,2.61657,2.68782
43.0,2.16199,1.52269
44.0,1.47644,1.98941
45.0,0.985499,2.65557
46.0,0.905665,0.979525
47.0,2.1685,1.02135
48.0,3.06595,2.23102
49.0,1.90825,2.24354
50.0,1.57466,3.23522
51.0,0.782278,2.61077
52.0,0.838561,2.43299
53.0,2.04048,3.86313
54.0,2.09827,3.98467
55.0,1.06463,2.93484
56.0,-0.648256,-2.23046
57.0,-2.95782,-4.04739
58.0,-5.01714,-9.24722
59.0,-2.34874,-7.88323
60.0,3.60514,3.29964
61.0,13.5307,24.5112
62.0,23.3904,43.7866
63.0,33.2589,59.5493
64.0,42.2607,71.6004
65.0,49.5472,82.8401
66.0,53.1317,95.5157
67.0,55.6503,104.451
68.0,65.3342,107.552
69.0,77.3473,95.8942
70.0,92.1379,90.9758
71.0,105.96,91.9408
72.0,115.925,100.648
73.0,120.476,112.825
74.0,122.568,119.023
75.0,132.962,106.631
76.0,148.814,83.6738
77.0,164.342,56.1725
78.0,179.144,33.561
79.0,192.985,22.3891
80.0,198.283,23.2746
81.0,202.809,30.6345
82.0,203.048,39.9109
83.0,205.355,44.9909
84.0,200.109,41.406
85.0,192.781,36.3095
86.0,191.257,37.7081
87.0,185.178,36.106
88.0,183.075,36.1152
89.0,180.553,35.9514
90.0,173.925,29.8631
91.0,171.059,25.3019
92.0,165.785,21.3918
93.0,162.989,21.6518
94.0,162.964,24.8558
95.0,158.954,21.6027
96.0,156.269,18.4728
97.0,153.375,17.3394
98.0,150.088,15.849
99.0,148.16,14.8248
100.0,147.225,17.4471
101.0,146.602,16.0331
102.0,143.813,11.8156
103.0,141.007,10.9214
104.0,138.711,9.98057
105.0,137.56,12.6221
106.0,137.114,14.0202
107.0,134.584,10.642
108.0,132.588,8.37544
109.0,131.064,7.45923
110.0,126.888,9.2093
111.0,128.102,10.7283
112.0,127.597,9.84046
113.0,126.254,9.22708
114.0,124.721,6.79936
115.0,124.062,4.23691
116.0,122.001,6.08904
117.0,121.179,8.38649
118.0,121.96,7.34739
119.0,120.526,4.86443
120.0,120.068,3.20105
121.0,117.254,3.1368
122.0,116.493,6.17885
123.0,116.565,6.25182
124.0,116.095,7.00194
125.0,114.932,6.91467
126.0,114.021,5.62493
127.0,112.295,5.1
128.0,111.461,5.95547
129.0,112.673,6.56041
130.0,112.132,6.93857
131.0,110.577,4.1862
132.0,109.461,3.72007
133.0,108.988,4.43762
134.0,110.105,7.18367
135.0,110.554,6.61076
136.0,109.796,6.59738
137.0,107.945,3.78391
138.0,106.733,3.78535
139.0,106.617,4.53645
140.0,105.905,6.23422
141.0,107.247,6.2241
142.0,105.095,5.7453
143.0,104.224,4.36847
144.0,103.496,5.49901
145.0,103.001,5.19697
146.0,103.184,7.28755
147.0,103.188,8.78806
148.0,102.174,5.87453
149.0,101.096,3.45986
150.0,101.655,4.75054
151.0,99.9577,5.76885
152.0,100.118,7.65165
153.0,99.6887,7.6854
154.0,99.3079,5.61518
155.0,98.3269,3.85601
156.0,97.1983,4.97536
157.0,98.7559,6.37998
158.0,98.7863,7.58728
159.0,98.8077,8.74828
160.0,97.5614,5.7211
161.0,97.4297,3.54177
162.0,96.6584,5.04777
163.0,96.5963,7.23124
164.0,97.9013,8.55503
165.0,97.3172,4.82502
166.0,95.9047,4.95305
167.0,94.7933,4.7599
168.0,94.7303,4.9402
169.0,94.3858,6.98802
170.0,96.1285,8.50799
171.0,94.4105,8.47897
172.0,93.9321,6.03853
173.0,93.1024,6.21425
174.0,93.3513,6.8456
175.0,93.5617,8.07471
176.0,93.1736,8.93235
177.0,92.5402,7.40075
178.0,92.5402,5.7068
179.0,91.6593,5.83773
180.0,92.1217,6.24157
181.0,92.6371,7.97465
182.0,92.6185,8.95246
183.0,92.1784,7.78184
184.0,90.326,7.50371
185.0,89.0818,9.26118
186.0,90.3785,8.82637
187.0,91.2726,8.95629
188.0,90.9573,9.37707
189.0,89.3552,6.45256
190.0,89.5878,8.05611
191.0,89.3248,9.65405
192.0,88.6356,9.74737
193.0,89.966,11.3958
194.0,88.4659,10.3058
195.0,87.7026,7.68124
196.0,87.2241,6.59764
197.0,86.9991,6.86887
198.0,87.9342,8.12786
199.0,89.558,9.71108
200.0,88.749,8.54649
201.0,87.8266,7.89746
202.0,86.497,8.19219
203.0,86.8435,6.89634
204.0,87.4532,7.89917
205.0,87.4457,9.52984
206.0,86.7798,8.20483
207.0,85.7966,8.03061
208.0,85.5179,6.82074
209.0,84.9732,8.02796
210.0,86.1362,10.0184
211.0,86.2352,10.7806
212.0,85.483,9.09353
213.0,85.625,8.63678
214.0,84.434,8.19049
215.0,83.7036,7.32234
216.0,85.0847,9.23056
217.0,84.2782,9.36295
218.0,83.0339,7.99885
219.0,82.4054,7.29736
220.0,81.8104,6.63892
221.0,83.3704,6.4374
222.0,83.8776,7.76189
223.0,82.773,8.14363
224.0,81.1414,8.20361
225.0,81.6291,7.14822
226.0,79.6523,5.71901
227.0,80.3125,7.56289
228.0,81.6192,8.43474
229.0,80.9417,8.14088
230.0,80.7733,6.59589
231.0,80.3831,5.16166
232.0,80.8136,6.48213
233.0,81.512,7.30066
234.0,81.9286,8.55388
235.0,81.8939,7.79662
236.0,80.8012,5.53072
237.0,81.0037,6.12122
238.0,80.9369,5.45306
239.0,81.0614,6.51113
240.0,81.041,7.47031
241.0,80.129,6.8378
242.0,78.9768,5.99086
243.0,78.7651,5.45385
244.0,78.039,5.31761
245.0,79.0282,5.96361
246.0,79.9572,6.93681
247.0,78.2493,5.82485
248.0,78.2771,5.82643
249.0,77.4462,4.1569
250.0,77.5591,3.44031
251.0,79.3064,4.91288
252.0,80.3414,5.40595
253.0,78.2901,4.25565
254.0,77.5096,4.34722
255.0,76.7547,3.84339
256.0,76.5919,3.44233
257.0,78.2356,4.34752
258.0,77.2343,3.40858
259.0,76.8965,4.18223
260.0,76.3642,4.71096
261.0,75.0989,2.74764
262.0,77.0387,2.08662
263.0,77.5005,3.94506
264.0,77.3447,3.67056
265.0,76.3234,2.89229
266.0,75.8705,2.99174
267.0,75.8805,2.46845
268.0,77.0606,1.4823
269.0,77.4018,3.51211
270.0,76.8329,4.30805
271.0,76.2846,3.97689
272.0,75.854,3.25097
273.0,75.2304,1.88693
274.0,76.078,2.85904
275.0,76.5945,3.60591
276.0,77.2606,2.6875
277.0,76.3149,3.54274
278.0,77.1587,2.79674
279.0,76.7931,2.84745
280.0,77.6518,4.41655
281.0,77.3179,5.59555
282.0,77.6116,3.57033
283.0,77.2833,3.12974
284.0,76.5978,3.12174
285.0,76.2653,3.91542
286.0,77.3029,3.57713
287.0,78.2845,3.84657
288.0,76.9204,2.63772
289.0,75.6835,3.14536
290.0,75.1242,2.05258
291.0,76.297,1.77111
292.0,77.5907,3.19995
293.0,77.2868,2.63378
294.0,76.1638,1.9758
295.0,75.3128,1.73732
296.0,74.2929,0.521311
297.0,75.4454,2.01035
298.0,77.0116,1.4394
299.0,76.3335,1.8182
300.0,76.1872,2.83537
301.0,75.8856,2.82386
302.0,75.9674,3.16035
303.0,77.1903,0.229963
304.0,77.9096,0.946197
305.0,77.1727,2.28625
306.0,77.5498,2.64504
307.0,76.5422,2.63672
308.0,76.344,1.44547
309.0,78.3097,2.95018
310.0,78.0456,2.62407
311.0,77.6464,0.264833
312.0,76.8535,1.85639
313.0,76.7193,1.24364
314.0,77.3947,0.493971
315.0,78.9643,1.78886
316.0,78.7008,1.27883
317.0,78.4124,0.182272
318.0,77.5536,2.82269
319.0,76.3742,2.32222
320.0,76.9516,0.372737
321.0,77.6161,2.06195
322.0,77.224,2.22745
323.0,76.9187,3.46736
324.0,75.9505,3.53004
325.0,75.6359,1.85751
326.0,77.6606,0.873113
327.0,78.1508,2.18542
328.0,77.1277,1.76677
329.0,77.1448,1.85743
330.0,76.8338,1.67807
331.0,76.5267,0.709347
332.0,76.5827,2.58993
333.0,77.9779,3.35166
334.0,77.9424,2.08425
335.0,77.3237,1.3091
336.0,76.4963,1.58623
337.0,76.46,0.851401
338.0,77.7961,3.30056
339.0,78.8729,3.80458
340.0,77.8631,1.97108
341.0,76.941,2.89157
342.0,77.1024,0.445378
343.0,77.6463,2.93858
344.0,78.7684,3.82501
345.0,79.3979,3.19819
346.0,78.7238,1.81835
347.0,78.1823,2.27299
348.0,77.8493,0.796864
349.0,77.2337,1.33971
350.0,78.933,4.56719
351.0,78.458,5.009
352.0,77.7894,1.92359
353.0,77.7175,1.1558
354.0,78.1304,2.70953
355.0,78.4006,4.41504
356.0,78.6987,6.56064
357.0,79.1586,5.88509
358.0,78.2633,2.68432
359.0,78.3913,2.78533
360.0,78.0475,3.07028
361.0,79.8265,5.31744
362.0,80.5474,5.61512
363.0,80.7642,4.4646
364.0,79.8588,1.94168
365.0,79.7881,0.604959
366.0,79.3502,2.09664
367.0,80.622,5.84506
368.0,81.089,5.97973
369.0,79.3329,4.03644
370.0,78.165,1.66244
371.0,78.6414,3.74785
372.0,79.279,5.40292
373.0,81.6559,6.63918
374.0,81.1382,6.47066
375.0,80.4458,4.42806
376.0,80.0013,3.10713
377.0,78.7205,3.66562
378.0,79.0484,6.25169
379.0,80.3741,8.34321
380.0,80.4278,6.20536
381.0,80.9937,3.73972
382.0,81.438,1.73194
383.0,81.5455,1.84745
384.0,82.6782,4.20132
385.0,84.1444,6.24152
386.0,84.2994,5.84479
387.0,83.0938,2.81709
388.0,83.0696,1.4143
389.0,83.0469,2.80147
390.0,82.4157,5.15268
391.0,83.2031,4.87748
392.0,82.5249,3.62032
393.0,82.3338,1.40385
394.0,81.9892,0.811114
395.0,81.5637,3.68074
396.0,82.5185,4.36138
397.0,82.7806,4.77242
398.0,81.656,3.02232
399.0,82.4809,0.858063
400.0,81.6308,0.61024
401.0,82.0934,2.53302
402.0,83.4401,4.93294
403.0,82.5984,4.82506
404.0,81.9047,3.5126
405.0,81.107,0.805973
406.0,81.5696,2.85489
407.0,82.2168,3.89805
408.0,84.1175,7.04966
409.0,84.6085,6.23734
410.0,83.0449,3.99902
411.0,82.8657,2.93228
412.0,82.4934,3.5846
413.0,83.5319,5.45036
414.0,83.7751,6.28359
415.0,82.8696,4.31554
416.0,83.1767,2.00364
417.0,82.9183,1.32439
418.0,82.8545,1.5199
419.0,82.2272,2.97418
420.0,85.0381,5.47472
421.0,83.8541,3.67845
422.0,84.0004,1.84328
423.0,83.4072,2.38931
424.0,83.8246,3.43823
425.0,84.8944,4.771
426.0,85.6329,6.26835
427.0,85.0989,3.44667
428.0,84.914,1.26553
429.0,84.5919,2.37236
430.0,83.3715,3.56526
431.0,84.6721,5.1954
432.0,85.2561,5.73742
433.0,85.5037,2.50458
434.0,85.1763,1.71498
435.0,83.254,2.18794
436.0,83.4635,5.00514
437.0,84.8666,6.19863
438.0,85.2984,6.27641
439.0,85.0515,5.04284
440.0,85.3288,1.7063
441.0,85.2955,1.9824
442.0,85.8936,4.22788
443.0,87.529,6.22838
444.0,86.3128,5.54136
445.0,85.5657,3.37193
446.0,86.0764,2.40211
447.0,84.8772,3.83893
448.0,84.871,5.23382
449.0,87.0989,6.87542
450.0,87.5442,5.55555
451.0,87.2741,2.30865
452.0,87.3271,1.98036
453.0,86.6961,3.19
454.0,87.9536,6.38545
455.0,89.565,6.57304
456.0,89.936,6.59649
457.0,89.697,2.98828
458.0,90.5476,1.7879
459.0,90.5977,3.295
460.0,92.0672,5.80481
461.0,92.2188,6.73004
462.0,91.6297,4.05809
463.0,91.4502,1.63525
464.0,90.7227,2.12106
465.0,91.3543,4.1179
466.0,92.6724,5.95528
467.0,93.7555,4.52489
468.0,93.239,3.40171
469.0,93.2824,2.2532
470.0,91.9545,2.5285
471.0,93.662,4.57184
472.0,93.8155,3.78913
473.0,94.9731,3.10501
474.0,94.3481,2.04031
475.0,94.3012,3.31192
476.0,94.7448,2.21936
477.0,95.5215,3.83473
478.0,97.24,4.42925
479.0,97.3957,3.68091
480.0,97.1106,2.83663
481.0,96.731,3.45769
482.0,96.2826,3.03978
483.0,98.329,4.10138
484.0,99.3353,5.06523
485.0,99.9099,2.9959
486.0,98.8914,2.82765
487.0,98.5257,3.17115
488.0,99.9568,3.20515
489.0,100.794,4.39518
490.0,102.509,5.21597
491.0,102.576,3.19553
492.0,102.023,1.16934
493.0,102.123,1.73619
494.0,102.447,3.94954
495.0,103.855,4.75196
496.0,105.618,6.17325
497.0,105.039,3.77649
498.0,105.102,2.225
499.0,105.677,2.13412
500.0,105.223,4.91949
501.0,107.987,7.05057
502.0,108.957,6.15908
503.0,107.288,6.08925
504.0,109.537,5.13335
505.0,108.818,5.62045
506.0,108.769,5.7682
507.0,111.962,6.81175
508.0,109.576,6.23249
509.0,110.131,4.20784
510.0,112.848,5.37605
511.0,112.301,5.81535
512.0,113.403,5.674
513.0,116.13,6.68251
514.0,116.907,6.25352
515.0,117.899,3.80013
516.0,118.541,4.13808
517.0,118.462,4.84777
518.0,120.262,6.85215
519.0,120.716,8.50367
520.0,119.22,4.90764
521.0,120.225,2.41417
522.0,120.896,0.563132
523.0,122.988,3.05526
524.0,122.412,5.45745
525.0,124.987,5.56497
526.0,126.164,4.10746
527.0,129.342,3.85789
528.0,128.765,3.31198
529.0,129.886,4.44441
530.0,133.808,2.5728
531.0,135.383,2.32075
532.0,137.424,2.36562
533.0,138.881,3.08917
534.0,138.481,3.52607
535.0,139.913,2.16959
536.0,142.698,2.384
537.0,144.474,2.29599
538.0,145.9,3.14953
539.0,148.718,6.16298
540.0,149.811,6.52483
541.0,151.584,6.99541
542.0,154.872,4.48807
543.0,156.282,6.35739
544.0,155.051,5.56694
545.0,158.021,8.76136
546.0,160.184,9.4098
547.0,161.332,5.92388
548.0,167.512,6.4234
549.0,169.326,8.72036
550.0,170.251,11.4943
551.0,170.963,14.2675
552.0,174.914,11.129
553.0,175.604,7.21784
554.0,181.142,7.84261
555.0,179.78,7.0897
556.0,179.925,12.1524
557.0,183.102,10.0936
558.0,185.459,8.57843
559.0,190.069,8.30744
560.0,192.436,8.41814
561.0,193.593,10.6022
562.0,194.818,12.8666
563.0,197.352,16.6342
564.0,201.256,14.3873
565.0,201.346,9.93747
566.0,206.319,11.9545
567.0,206.707,11.7872
568.0,209.721,9.81746
569.0,211.166,10.8455
570.0,214.586,7.78248
571.0,214.035,8.56247
572.0,216.782,12.5728
573.0,216.602,12.2497
574.0,218.902,12.4273
575.0,221.549,14.5434
576.0,224.326,13.7968
577.0,225.891,18.6554
578.0,228.823,20.1554
579.0,228.783,18.7896
580.0,232.889,16.1542
581.0,236.225,19.6416
582.0,238.838,22.507
583.0,242.904,25.9024
584.0,238.138,26.471
585.0,245.011,20.2792
586.0,244.11,18.9982
587.0,241.845,20.2848
588.0,245.038,27.768
589.0,247.405,26.6992
590.0,246.834,25.8584
591.0,251.144,25.4485
592.0,250.376,23.5278
593.0,250.721,22.8145
594.0,252.037,29.8747
595.0,253.155,32.2997
596.0,254.384,30.1007
597.0,258.898,25.9672
598.0,256.651,20.479
599.0,257.839,23.0974
600.0,257.948,24.9984
601.0,260.971,26.0079
602.0,261.269,25.678
603.0,259.109,19.9891
604.0,260.765,20.2534
605.0,263.494,24.0208
606.0,270.299,27.9295
607.0,267.351,24.4653
608.0,263.642,23.6191
609.0,267.56,21.9422
610.0,265.143,19.5452
611.0,267.038,20.7197
612.0,268.667,24.468
613.0,272.855,25.8588
614.0,271.739,23.5306
615.0,269.564,17.6441
616.0,269.807,23.3695
617.0,273.778,27.9525
618.0,274.757,29.9391
619.0,270.749,25.8588
620.0,273.083,19.9376
621.0,278.252,25.5875
622.0,277.993,22.0344
623.0,276.781,20.4263
624.0,280.504,25.6103
625.0,276.323,21.7689
626.0,277.815,22.9268
627.0,280.281,24.5601
628.0,281.039,25.0726
629.0,281.674,27.5858
630.0,285.56,23.6996
631.0,282.405,26.332
632.0,280.269,25.854
633.0,284.489,26.8536
634.0,287.031,27.9453
635.0,284,29.1101
636.0,285.858,27.8763
637.0,287.583,31.4041
638.0,285.193,27.6412
639.0,284.9,27.3051
640.0,286.974,33.0575
641.0,286.035,30.7441
642.0,286.845,28.4615
643.0,282.083,31.1056
644.0,282.612,29.2255
645.0,282.326,30.0201
646.0,282.709,32.7923
647.0,279.489,31.8153
648.0,279.18,35.5113
649.0,275.672,28.9282
650.0,277.724,29.7235
651.0,277.125,32.4612
652.0,277.011,32.1313
653.0,277.582,38.7503
654.0,273.618,34.6952
655.0,270.188,30.5884
656.0,262.583,30.9838
657.0,262.259,33.1971
658.0,262.928,34.1444
659.0,257.522,36.1083
660.0,254.886,33.1846
661.0,247.927,28.5721
662.0,247.019,33.214
663.0,244.53,34.2127
664.0,242.431,36.9868
665.0,239.949,39.2785
666.0,235.946,36.2724
667.0,229.846,34.0337
668.0,227.951,33.1884
669.0,225.249,38.2796
670.0,225.784,41.1699
671.0,223.439,38.2884
672.0,221.817,35.7736
673.0,218.849,29.85
674.0,217.045,34.3197
675.0,217.904,38.6944
676.0,218.849,35.8302
677.0,217.331,35.3225
678.0,213.838,33.0384
679.0,211.054,28.719
680.0,209.802,29.5022
681.0,208.61,28.8952
682.0,207.558,31.4823
683.0,205.394,31.1323
684.0,201.289,26.8199
685.0,198.625,27.8466
686.0,196.069,26.8714
687.0,196.017,31.4049
688.0,193.487,31.407
689.0,188.748,26.896
690.0,188.5,27.4914
691.0,186.615,28.4268
692.0,183.1,27.0543
693.0,182.228,30.4811
694.0,179.691,28.9764
695.0,175.969,27.1146
696.0,171.942,24.1726
697.0,169.067,20.8297
698.0,168.387,23.643
699.0,167.073,25.8389
700.0,163.525,25.6575
701.0,158.711,20.6436
702.0,156.528,17.2998
703.0,153.445,15.3765
704.0,151.669,17.6463
705.0,151.336,20.1473
706.0,147.658,17.6167
707.0,145.403,14.1092
708.0,141.332,12.7777
709.0,137.679,13.7291
710.0,137.21,16.0749
711.0,135.248,16.5189
712.0,130.665,15.0263
713.0,128.497,11.6288
714.0,126.408,11.6235
715.0,124.942,12.9885
716.0,123.655,13.9572
717.0,121.844,14.7994
718.0,119.329,11.361
719.0,116.492,7.4686
720.0,114.083,7.40402
721.0,112.552,8.77791
722.0,112.65,10.5449
723.0,112.74,9.76721
724.0,109.726,6.49211
725.0,106.535,5.1229
726.0,104.387,5.15736
727.0,103.634,6.81448
728.0,103.152,7.59177
729.0,100.904,6.35392
730.0,99.0096,4.26194
731.0,97.9768,3.07219
732.0,97.3429,4.68915
733.0,96.0329,5.87831
734.0,95.2622,7.53735
735.0,94.1017,5.87962
736.0,92.9729,4.27678
737.0,91.2801,3.89429
738.0,88.0289,4.81481
739.0,87.1029,5.92543
740.0,87.4295,6.46514
741.0,86.506,4.65358
742.0,84.4217,3.48741
743.0,82.3358,3.96919
744.0,81.0124,4.36624
745.0,80.654,5.30557
746.0,80.003,5.2939
747.0,78.6172,3.58902
748.0,77.4805,2.68165
749.0,76.5518,2.70827
750.0,76.1105,2.23716
751.0,76.4242,3.37161
752.0,76.3602,3.08748
753.0,75.5083,0.820103
754.0,74.1195,3.3622
755.0,72.4953,2.69769
756.0,71.8186,2.26566
757.0,72.7912,1.84483
758.0,72.6578,2.17066
759.0,70.9538,1.46432
760.0,70.0913,3.23244
761.0,69.6536,2.88913
762.0,68.8413,0.743201
763.0,68.9933,2.25648
764.0,68.8499,0.423391
765.0,67.5871,1.90917
766.0,66.6292,3.99351
767.0,66.3514,2.6431
768.0,66.1107,0.584748
769.0,67.0561,0.468893
770.0,66.9091,1.56684
771.0,65.646,3.32685
772.0,65.37,3.5513
773.0,64.8449,1.25911
774.0,65.4291,1.69359
775.0,66.546,2.42505
776.0,66.6837,1.57284
777.0,65.8804,1.35081
778.0,65.7747,2.56878
779.0,64.6817,1.65118
780.0,65.0561,1.5329
781.0,65.1699,0.456306
782.0,63.8447,2.45508
783.0,63.3007,6.37055
784.0,62.7934,6.59754
785.0,62.6458,4.85145
786.0,63.6813,2.75338
787.0,64.1167,2.86866
788.0,63.5302,4.39019
789.0,63.3537,6.25527
790.0,62.6224,5.8133
791.0,62.3735,2.91755
792.0,63.637,1.72842
793.0,64.1069,2.5416
794.0,63.3171,5.03218
795.0,62.3359,5.78309
796.0,61.3541,5.78205
797.0,61.215,4.50688
798.0,62.1262,3.43556
799.0,62.4976,5.18198
800.0,61.9141,8.07433
801.0,62.6461,9.14767
802.0,61.5931,7.77425
803.0,63.1392,6.91895
804.0,64.4038,5.80838
805.0,64.144,6.78813
806.0,63.7192,8.41823
807.0,62.9246,9.20815
808.0,61.4644,7.86663
809.0,62.4937,6.00831
810.0,63.1627,7.04327
811.0,62.1802,8.81715
812.0,61.5566,12.1953
813.0,60.6651,13.5944
814.0,61.1449,11.8358
815.0,62.3059,9.3979
816.0,62.9909,9.34383
817.0,62.8175,11.9231
818.0,62.1263,12.9964
819.0,62.3193,13.1134
820.0,61.7454,11.2176
821.0,62.3809,9.76006
822.0,62.6241,9.23249
823.0,62.0526,11.6196
824.0,60.5382,13.4333
825.0,60.1167,11.5669
826.0,60.0857,10.422
827.0,60.8914,8.42222
828.0,60.3871,8.32286
829.0,59.1,11.4284
830.0,58.393,11.4633
831.0,58.4179,10.3044
832.0,59.1015,7.08181
833.0,59.2378,5.35162
834.0,59.8657,7.05686
835.0,58.6357,9.63072
836.0,58.3683,9.73987
837.0,58.1366,7.24274
838.0,58.2231,4.95948
839.0,58.8458,4.60415
840.0,59.4036,7.18001
841.0,57.1344,8.39336
842.0,56.6843,8.01698
843.0,56.9008,6.92328
844.0,57.373,5.47171
845.0,58.2568,5.98073
846.0,56.3817,6.98976
847.0,55.848,10.5388
848.0,55.4351,10.5176
849.0,54.8242,7.77533
850.0,56.645,5.80394
851.0,56.9243,5.11231
852.0,55.9169,6.92279
853.0,56.1755,9.82795
854.0,55.6619,9.16163
855.0,55.8362,7.60202
856.0,56.7449,5.17216
857.0,56.1863,5.7221
858.0,55.5674,8.00181
859.0,55.1428,9.82139
860.0,54.6913,9.13797
861.0,54.7669,6.46728
862.0,56.2592,4.20617
863.0,56.1868,5.58913
864.0,54.9966,7.80575
865.0,55.301,9.12973
866.0,54.5043,8.04982
867.0,54.8238,4.44726
868.0,55.848,2.57336
869.0,55.2683,5.38793
870.0,54.6803,6.98119
871.0,54.9515,7.85771
872.0,54.099,6.38095
873.0,54.4968,3.76815
874.0,55.4938,3.32734
875.0,53.9152,5.16118
876.0,53.9044,8.52245
877.0,53.4366,8.60089
878.0,53.5517,6.70126
879.0,54.0715,3.92748
880.0,54.2288,4.02196
881.0,53.4629,5.82485
882.0,53.0284,7.37762
883.0,52.1175,7.36587
884.0,52.5243,5.84137
885.0,53.7081,3.59243
886.0,53.3228,3.81164
887.0,52.5752,6.41581
888.0,51.4734,7.41109
889.0,51.0981,6.48992
890.0,51.9283,4.57389
891.0,52.6915,2.85948
892.0,52.6095,3.86449
893.0,51.8664,6.60409
894.0,51.0283,8.01646
895.0,50.4449,6.35567
896.0,50.8885,4.12344
897.0,51.5175,2.28823
898.0,50.7948,4.18465
899.0,50.2477,6.10196
900.0,49.9688,7.73877
901.0,49.1981,8.04257
902.0,49.8467,4.86662
903.0,50.872,3.33404
904.0,52.3652,4.2403
905.0,52.4536,7.61063
906.0,52.0839,8.25014
907.0,51.6619,5.5866
908.0,52.071,4.37591
909.0,52.3686,3.79624
910.0,52.9029,5.76694
911.0,52.6417,8.62207
912.0,51.9488,9.12179
913.0,51.4456,6.41006
914.0,51.1806,4.96713
915.0,52.8811,3.74288
916.0,52.6597,6.23906
917.0,51.7344,8.02877
918.0,50.712,8.16315
919.0,49.9562,4.45975
920.0,49.8816,2.45567
921.0,51.0563,2.04685
922.0,51.0802,5.79562
923.0,51.5145,8.03741
924.0,50.525,6.66873
925.0,49.7329,4.2667
926.0,50.9154,1.61815
927.0,51.5366,3.14275
928.0,51.2238,7.04571
929.0,51.7532,9.82695
930.0,50.3246,7.81474
931.0,49.8858,5.23743
932.0,51.2563,2.70168
933.0,50.6851,4.258
934.0,49.9658,7.53682
935.0,49.3387,7.97937
936.0,48.9069,6.57498
937.0,48.718,4.04371
938.0,49.2896,0.818806
939.0,49.5225,3.13018
940.0,49.286,6.33614
941.0,48.8675,6.47455
942.0,48.1506,4.86958
943.0,48.3105,2.10442
944.0,48.9026,0.477014
945.0,50.7525,
946.0,52.5007,
947.0,52.1349,
948.0,50.506,
949.0,49.351,
950.0,48.6818,
951.0,49.8566,
952.0,52.4394,
953.0,51.4739,
954.0,48.578,
955.0,47.9254,
956.0,49.3115,
957.0,51.6001,
958.0,52.4287,
959.0,50.8894,
960.0,48.6412,
961.0,47.608,
962.0,47.3721,
963.0,50.4156,
964.0,51.3384,
965.0,49.2597,
966.0,47.0608,
967.0,47.2449,