File: Exp-Data_Prepared-Final/FTT-White/2018/Fir_50kW_hor_Average.csv
Time (s),HRRPUA (kW/m2),Uc HRRPUA (kW/m2)
0.0,-1.27919,-0.0164571
1.0,-0.636559,-1.08338
2.0,1.18078,1.40348
3.0,1.30486,1.83407
4.0,1.13422,2.20569
5.0,0.653649,1.96224
6.0,0.645062,2.71271
7.0,0.81471,1.36315
8.0,1.61915,2.23837
9.0,1.85076,3.04677
10.0,1.47037,1.97349
11.0,1.0218,0.962725
12.0,0.945998,2.13496
13.0,0.656473,3.11113
14.0,0.852756,3.88033
15.0,1.18025,2.70767
16.0,0.6012,0.836442
17.0,0.761825,1.35708
18.0,0.532815,1.92345
19.0,0.428521,2.43983
20.0,0.749466,3.31292
21.0,0.701477,3.48121
22.0,0.0413733,1.95448
23.0,-0.0660194,-0.540692
24.0,-0.263983,-1.46757
25.0,-0.138782,-2.83517
26.0,0.18908,3.18414
27.0,-0.577063,-2.46622
28.0,-2.37084,-4.51732
29.0,-3.49699,-6.9249
30.0,-0.910906,-1.90952
31.0,5.167,12.6843
32.0,13.1218,27.8362
33.0,24.5053,41.0365
34.0,39.6466,51.7055
35.0,59.1199,61.6971
36.0,78.5829,74.5274
37.0,94.0873,87.8054
38.0,104.438,100.785
39.0,111.548,111.431
40.0,118.972,116.4
41.0,128.43,110.424
42.0,144.249,88.8507
43.0,162.182,55.2837
44.0,179.201,28.2632
45.0,190.568,7.84159
46.0,194.757,17.9495
47.0,196.138,25.7083
48.0,194.724,27.8231
49.0,192.162,28.0844
50.0,187.718,29.2389
51.0,182.607,28.9126
52.0,178.288,29.741
53.0,170.913,27.8767
54.0,166.507,22.6244
55.0,162.894,19.2532
56.0,158.082,19.3512
57.0,154.134,19.5827
58.0,148.824,17.3343
59.0,146.337,15.4877
60.0,143.25,14.4429
61.0,140.502,13.6663
62.0,137.213,13.9009
63.0,132.89,13.6715
64.0,130.244,13.0007
65.0,129.184,12.3312
66.0,125.591,8.5982
67.0,123.012,9.65953
68.0,121.55,10.8914
69.0,120.949,11.5173
70.0,117.809,8.95119
71.0,115.985,7.96284
72.0,115.229,8.06427
73.0,113.099,8.12911
74.0,111.568,8.59556
75.0,110.853,8.78007
76.0,109.239,7.16099
77.0,107.48,7.38604
78.0,107.996,7.61031
79.0,107.557,9.37551
80.0,105.053,8.65816
81.0,104.17,6.38544
82.0,102.43,5.41649
83.0,99.8343,6.75726
84.0,100.017,8.34864
85.0,99.4914,9.98734
86.0,97.4311,8.67546
87.0,97.2185,7.48445
88.0,96.0694,5.75134
89.0,95.1409,6.81922
90.0,94.9104,8.19431
91.0,95.1398,10.3035
92.0,92.8247,8.91723
93.0,92.8213,5.54073
94.0,93.4334,5.54003
95.0,92.8342,7.37251
96.0,92.5211,8.88494
97.0,93.2241,9.03904
98.0,91.3121,7.66092
99.0,91.3533,5.33977
100.0,90.998,6.29972
101.0,89.9793,7.61036
102.0,89.8989,8.6936
103.0,88.6867,7.70614
104.0,87.9482,8.10005
105.0,87.1644,6.91197
106.0,86.7279,5.32672
107.0,86.9199,6.52147
108.0,87.0099,7.3101
109.0,87.366,8.2554
110.0,87.0453,7.15307
111.0,86.4966,6.51324
112.0,86.8712,7.12202
113.0,87.1389,7.54209
114.0,88.8951,10.1529
115.0,87.3254,8.8689
116.0,88.1735,7.53846
117.0,86.738,6.26533
118.0,87.3825,8.36473
119.0,87.4012,8.13982
120.0,87.5407,9.47002
121.0,85.8533,10.2716
122.0,86.2367,8.25765
123.0,85.7997,7.71165
124.0,86.1178,7.93981
125.0,85.9394,8.2545
126.0,84.8376,9.98848
127.0,83.8791,9.52466
128.0,83.8956,9.46543
129.0,83.4856,8.75146
130.0,83.2922,8.84949
131.0,84.1726,10.9799
132.0,83.5633,12.4681
133.0,83.6772,11.3859
134.0,83.5094,10.7162
135.0,82.9239,9.52643
136.0,82.7263,9.59588
137.0,83.2345,12.7534
138.0,81.1475,13.1853
139.0,80.9025,12.7566
140.0,80.4677,11.1121
141.0,80.1264,8.99655
142.0,81.6912,9.15159
143.0,81.7257,10.8524
144.0,82.4422,14.0358
145.0,82.7118,13.6371
146.0,83.5199,13.2605
147.0,83.5972,11.6404
148.0,84.0909,11.8863
149.0,84.2246,13.172
150.0,83.9746,14.316
151.0,84.4534,14.0911
152.0,84.1415,12.6931
153.0,84.5437,11.5162
154.0,84.7773,12.271
155.0,84.6219,13.5363
156.0,83.8978,14.4635
157.0,84.999,13.8081
158.0,84.5639,12.0047
159.0,83.8077,10.9854
160.0,84.4697,12.6998
161.0,85.3872,13.5063
162.0,85.2726,12.9219
163.0,84.2629,11.2155
164.0,83.6646,10.5846
165.0,84.4401,10.8004
166.0,85.675,11.4529
167.0,85.6669,12.0971
168.0,85.0419,11.5822
169.0,84.9707,11.9448
170.0,85.1417,10.5859
171.0,84.932,10.1075
172.0,84.7767,10.8582
173.0,84.3615,12.3451
174.0,84.4948,11.8987
175.0,84.6695,10.597
176.0,84.2191,8.67668
177.0,84.981,9.1858
178.0,85.0642,11.931
179.0,84.8661,12.6694
180.0,84.1015,11.565
181.0,84.2797,9.84841
182.0,84.0284,7.89893
183.0,84.9485,9.50525
184.0,84.3982,11.3887
185.0,84.0804,10.3545
186.0,84.5675,9.19804
187.0,85.4281,8.58531
188.0,85.2903,8.03365
189.0,86.2881,8.71767
190.0,85.994,10.4778
191.0,86.1179,10.2731
192.0,85.9412,9.05829
193.0,84.7797,6.61397
194.0,84.7482,6.18396
195.0,84.8877,8.67453
196.0,83.7545,9.01786
197.0,84.1294,8.6673
198.0,83.4213,7.20531
199.0,83.443,6.75216
200.0,84.5059,6.9445
201.0,84.8762,9.1673
202.0,84.1351,8.96612
203.0,84.1553,8.29036
204.0,83.5393,6.42214
205.0,84.1292,5.23358
206.0,83.4268,5.81573
207.0,84.0426,7.82037
208.0,83.2971,8.33851
209.0,83.3786,7.56042
210.0,82.7024,6.86377
211.0,82.1864,7.00018
212.0,83.1357,8.06837
213.0,82.16,8.28265
214.0,82.1923,8.87919
215.0,81.2088,8.4657
216.0,80.1212,7.69188
217.0,80.7355,8.05265
218.0,81.2134,8.38042
219.0,81.918,10.4519
220.0,81.584,9.56697
221.0,82.0722,8.77302
222.0,81.7275,7.24371
223.0,81.9369,7.32687
224.0,82.3073,9.99026
225.0,81.3375,10.8627
226.0,79.9416,9.6008
227.0,79.6295,9.10473
228.0,79.9935,8.44836
229.0,79.9592,8.48968
230.0,80.4841,9.98256
231.0,80.7462,11.7713
232.0,79.6441,10.4063
233.0,79.8305,9.77693
234.0,79.6613,9.51773
235.0,79.5532,10.4006
236.0,79.8872,10.5105
237.0,80.4226,10.7793
238.0,79.4409,9.38338
239.0,79.9525,9.51205
240.0,79.3355,9.04872
241.0,79.0605,9.05111
242.0,79.9755,10.6916
243.0,78.8107,10.3455
244.0,79.1039,8.36329
245.0,78.3574,7.24152
246.0,78.1461,7.53423
247.0,78.9787,9.1868
248.0,78.9728,10.8762
249.0,78.4123,9.67845
250.0,77.9809,6.84643
251.0,77.4728,5.1279
252.0,77.4544,7.32305
253.0,78.0413,9.09173
254.0,78.3387,10.632
255.0,78.1139,9.26509
256.0,77.6616,7.32461
257.0,77.7524,7.746
258.0,77.8857,9.24644
259.0,78.7808,11.8551
260.0,78.2303,11.4437
261.0,78.1966,9.62121
262.0,77.4348,8.67317
263.0,78.0481,9.28047
264.0,78.5417,10.4447
265.0,78.6658,12.2703
266.0,79.4674,11.6713
267.0,79.3297,9.29271
268.0,79.1455,9.54696
269.0,79.491,9.87118
270.0,80.5064,11.9757
271.0,79.8854,12.7024
272.0,79.6395,13.6337
273.0,79.4981,10.8217
274.0,79.3606,9.81324
275.0,79.3337,10.959
276.0,79.0245,11.6973
277.0,78.7615,12.1616
278.0,78.5445,12.1902
279.0,78.3566,11.2265
280.0,78.43,11.5744
281.0,79.0248,12.2948
282.0,79.5822,13.2771
283.0,79.8322,13.876
284.0,79.4742,12.5913
285.0,79.422,12.2942
286.0,78.8168,12.0494
287.0,79.6003,12.8335
288.0,79.7708,14.3824
289.0,79.8007,14.2369
290.0,79.1506,12.4942
291.0,78.5993,10.6253
292.0,78.3984,11.4423
293.0,78.2102,11.0407
294.0,79.1203,14.2942
295.0,78.5183,15.3415
296.0,78.7853,13.3308
297.0,78.7118,11.1965
298.0,78.0666,10.9627
299.0,78.3825,12.4854
300.0,79.7083,13.7469
301.0,79.5938,14.2624
302.0,79.009,11.6684
303.0,79.8674,10.1568
304.0,80.6014,10.9383
305.0,81.7733,11.6517
306.0,80.9727,13.0527
307.0,80.4593,13.1536
308.0,82.3742,12.9787
309.0,82.1831,11.1302
310.0,83.2565,11.65
311.0,84.2672,11.6586
312.0,84.459,12.7728
313.0,84.7332,13.1051
314.0,84.9337,11.2015
315.0,85.1828,10.52
316.0,86.0139,10.0851
317.0,86.3024,11.213
318.0,85.7374,12.4456
319.0,85.6245,11.3251
320.0,87.6314,9.80715
321.0,87.5067,9.03629
322.0,87.88,10.0642
323.0,89.8747,11.826
324.0,89.3603,12.8083
325.0,89.9541,11.2905
326.0,90.3559,8.87603
327.0,89.3151,8.83342
328.0,90.5913,10.0531
329.0,91.4607,10.4905
330.0,90.9092,11.1175
331.0,91.1989,8.77895
332.0,91.8991,6.63886
333.0,92.7509,6.9811
334.0,93.5222,6.66908
335.0,94.5789,9.09266
336.0,94.9415,11.0519
337.0,95.0251,8.59466
338.0,94.9428,7.11651
339.0,95.5288,7.35462
340.0,96.205,8.28435
341.0,97.6803,10.9608
342.0,96.9802,9.26851
343.0,98.2587,6.81438
344.0,99.1542,5.81031
345.0,98.6381,6.4315
346.0,99.8271,5.25512
347.0,102.203,6.4703
348.0,101.831,7.03912
349.0,102.913,6.35468
350.0,102.847,4.30664
351.0,102.613,5.13311
352.0,103.975,6.73474
353.0,105.935,7.20045
354.0,104.726,6.30806
355.0,105.053,4.3196
356.0,106.733,3.44395
357.0,107.169,4.06151
358.0,107.646,4.99516
359.0,108.89,7.86065
360.0,107.665,5.38864
361.0,109.924,6.23573
362.0,110.589,3.94133
363.0,111.571,5.30671
364.0,111.3,5.73246
365.0,112.498,5.45799
366.0,113.439,5.12046
367.0,114.243,1.75016
368.0,116.314,2.0779
369.0,116.287,5.8187
370.0,117.878,5.77998
371.0,117.681,5.29896
372.0,118.038,4.82769
373.0,118.862,2.02242
374.0,120.696,3.15218
375.0,120.644,5.00564
376.0,123.408,4.47185
377.0,123.945,2.97324
378.0,124.041,2.11011
379.0,124.599,1.14398
380.0,127.231,2.11626
381.0,126.956,1.0894
382.0,129.085,2.58515
383.0,129.148,1.11456
384.0,130.107,1.45716
385.0,132.279,1.19682
386.0,135.103,1.89775
387.0,135.358,2.67337
388.0,134.449,2.11236
389.0,136.537,2.35633
390.0,137.474,1.94482
391.0,137.323,1.36871
392.0,138.93,3.18303
393.0,139.494,4.28244
394.0,140.953,1.40716
395.0,141.197,2.09517
396.0,142.351,3.25003
397.0,143.379,4.07091
398.0,143.118,6.33424
399.0,145.559,2.99931
400.0,146.647,1.94539
401.0,145.178,3.19504
402.0,147.635,3.10955
403.0,147.22,5.32373
404.0,147.464,8.86171
405.0,148.967,7.51135
406.0,148.287,5.59806
407.0,147.679,4.36307
408.0,149.573,4.69538
409.0,150.051,6.70437
410.0,153.258,5.82527
411.0,152.941,6.16829
412.0,152.345,6.00603
413.0,152.59,4.6727
414.0,151.993,5.76952
415.0,153.25,9.20796
416.0,153.093,7.44184
417.0,152.679,8.54124
418.0,153.6,8.6845
419.0,154.093,8.52414
420.0,152.672,10.798
421.0,154.595,13.0104
422.0,155.775,13.9766
423.0,155.588,16.3977
424.0,154.093,15.4692
425.0,155.672,15.8813
426.0,154.059,18.3315
427.0,153.204,18.9045
428.0,157.981,21.5866
429.0,156.859,21.9579
430.0,157.772,18.5508
431.0,158.153,20.4003
432.0,157.68,21.3179
433.0,157.947,24.8963
434.0,157.594,22.4937
435.0,159.148,20.2477
436.0,158.364,17.5181
437.0,159.21,15.7322
438.0,161.615,19.4794
439.0,162.573,20.8046
440.0,161.789,19.4918
441.0,161.851,17.435
442.0,162.218,16.32
443.0,163.129,15.9692
444.0,164.812,19.9383
445.0,163.37,18.7052
446.0,165.366,21.5001
447.0,163.547,17.5848
448.0,166.956,16.2568
449.0,165.685,16.3371
450.0,166.991,18.6364
451.0,167.778,18.5894
452.0,169.491,18.6326
453.0,169.316,15.6293
454.0,170.47,14.3981
455.0,170.279,13.5361
456.0,170.344,15.5002
457.0,170.835,16.7324
458.0,171.824,17.0372
459.0,170.59,14.2485
460.0,171.132,8.64905
461.0,173.729,13.978
462.0,172.655,14.7884
463.0,171.94,16.2737
464.0,172.224,15.6856
465.0,172.38,11.4085
466.0,173.988,12.994
467.0,171.803,14.1133
468.0,171.256,15.0813
469.0,170.357,16.5274
470.0,171.825,15.2455
471.0,171.321,16.419
472.0,168.893,13.5206
473.0,170.089,15.9058
474.0,171.233,19.4844
475.0,170.402,19.5589
476.0,170.359,17.4968
477.0,169.49,13.7505
478.0,167.805,13.4616
479.0,168.115,16.2369
480.0,166.845,18.2103
481.0,165.297,19.7661
482.0,165.281,17.5861
483.0,166.788,18.0225
484.0,164.674,13.885
485.0,168.14,17.1171
486.0,167.044,16.4227
487.0,164.959,18.2523
488.0,163.494,15.2933
489.0,162.125,13.9178
490.0,160.55,14.5642
491.0,158.73,16.8888
492.0,159.326,19.7247
493.0,157.912,19.9648
494.0,156.618,17.6452
495.0,155.034,17.9798
496.0,152.497,18.0901
497.0,151.658,20.8489
498.0,150.412,20.3503
499.0,148.979,22.4239
500.0,149.196,22.856
501.0,145.912,20.0539
502.0,144.159,23.7285
503.0,144.825,26.2109
504.0,143.083,28.2524
505.0,139.935,27.3501
506.0,137.748,24.1902
507.0,136.666,24.8228
508.0,134.7,27.0929
509.0,131.997,28.8916
510.0,129.934,28.8734
511.0,128.6,27.0427
512.0,125.731,22.9393
513.0,123.783,25.6171
514.0,121.363,27.9887
515.0,118.616,27.6389
516.0,117.734,26.0481
517.0,114.407,25.2149
518.0,113.83,23.0861
519.0,111.8,24.3611
520.0,110.339,25.1151
521.0,108.503,25.3761
522.0,106.314,24.5822
523.0,104.331,22.0428
524.0,103.589,20.6197
525.0,102.714,22.4986
526.0,102.021,25.6827
527.0,99.825,25.0295
528.0,98.0195,23.0899
529.0,97.4631,21.6397
530.0,95.3603,21.0352
531.0,92.9331,22.5147
532.0,91.6931,23.6914
533.0,90.0576,23.3906
534.0,89.5711,20.5839
535.0,87.9637,19.5433
536.0,85.9236,20.7715
537.0,84.456,22.7584
538.0,84.1051,23.9076
539.0,82.7641,22.452
540.0,80.3488,20.5393
541.0,79.353,19.8534
542.0,77.368,20.5246
543.0,75.7849,21.021
544.0,74.7005,21.1296
545.0,73.8421,19.4444
546.0,72.4186,17.3005
547.0,71.5532,17.0449
548.0,69.8729,17.7929
549.0,68.5545,18.6849
550.0,67.7432,18.4616
551.0,66.5904,15.9548
552.0,65.3323,13.716
553.0,63.9703,14.1115
554.0,62.931,16.4976
555.0,61.4663,18.7067
556.0,61.5452,18.9396
557.0,61.1208,16.8134
558.0,60.2785,15.646
559.0,59.7015,15.5537
560.0,58.963,16.073
561.0,58.4735,17.6015
562.0,58.5424,17.23
563.0,57.7792,15.0771
564.0,56.4357,13.4649
565.0,55.4723,14.3542
566.0,55.7371,15.6158
567.0,55.8091,15.2158
568.0,55.7032,12.9596
569.0,55.145,11.225
570.0,54.7488,10.671
571.0,53.7415,11.6769
572.0,53.1372,12.5643
573.0,52.4371,12.7846
574.0,51.6834,11.6666
575.0,50.7374,9.24611
576.0,49.968,8.51481
577.0,48.8682,10.5088
578.0,48.8801,11.9391
579.0,49.3678,12.1894
580.0,49.2253,10.5821
581.0,48.7397,8.17758
582.0,49.3633,7.11259
583.0,49.1162,8.08691
584.0,49.3242,8.82662
585.0,49.7757,7.61421
586.0,49.174,6.18282
587.0,48.5967,5.02433
588.0,48.0089,5.4578
589.0,47.0322,6.95463
590.0,46.5746,8.29119
591.0,46.5515,8.20523
592.0,45.5886,7.01912
593.0,44.5681,5.89552
594.0,43.9546,6.48322
595.0,43.9268,8.47845
596.0,43.8226,9.6166
597.0,43.493,9.02868
598.0,42.4716,7.31988
599.0,42.2288,5.83462
600.0,41.7635,6.77629
601.0,42.0685,8.40814
602.0,42.1998,8.87018
603.0,42.6404,6.96602
604.0,41.8219,5.44814
605.0,42.5108,4.25188
606.0,42.4304,5.86171
607.0,42.0233,8.04347
608.0,42.3508,8.70276
609.0,42.8361,7.86402
610.0,42.0223,5.64492
611.0,42.0864,4.60838
612.0,41.8683,6.32269
613.0,41.6129,7.81531
614.0,41.9448,7.95964
615.0,42.0564,6.66014
616.0,41.463,4.65729
617.0,41.2801,4.30134
618.0,41.2201,6.17802
619.0,41.6068,7.50244
620.0,41.6114,7.4006
621.0,41.1124,5.8176
622.0,40.6987,3.94427
623.0,40.9107,4.19247
624.0,41.4359,5.89056
625.0,41.3547,6.98025
626.0,41.1812,6.27737
627.0,40.9339,4.69286
628.0,40.2722,3.03812
629.0,39.9902,3.72149
630.0,39.8262,5.62262
631.0,39.9182,6.43116
632.0,40.7041,5.65484
633.0,39.5166,3.4461
634.0,39.5954,1.95512
635.0,39.0169,3.03099
636.0,39.103,3.92591
637.0,38.9665,4.98595
638.0,38.1617,3.98347
639.0,37.2061,2.01845
640.0,37.106,0.806529
641.0,36.6417,1.90306
642.0,37.0504,3.86745
643.0,37.223,4.28678
644.0,36.9263,3.16552
645.0,36.5372,1.41514
646.0,36.6774,1.08785
647.0,36.4252,2.52838
648.0,36.6022,4.33897
649.0,36.8029,4.01111
650.0,35.6039,3.00713
651.0,35.3732,1.25069
652.0,35.2588,2.10771
653.0,35.0167,3.92801
654.0,35.4629,5.23287
655.0,35.6721,4.88624
656.0,35.3198,3.56193
657.0,35.2428,1.24914
658.0,35.1005,1.45634
659.0,34.6701,3.49308
660.0,35.4353,4.6905
661.0,35.7348,3.90233
662.0,35.0093,1.90334
663.0,34.6206,1.36647
664.0,34.4428,2.32002
665.0,34.5357,3.45453
666.0,34.8445,4.4364
667.0,34.8817,3.39969
668.0,34.3782,1.93538
669.0,34.5249,1.19303
670.0,34.2344,2.22256
671.0,34.445,3.77202
672.0,35.1477,4.01273
673.0,34.1698,3.1051
674.0,33.4811,1.99527
675.0,33.8406,2.39449
676.0,33.4906,3.44672
677.0,33.5262,4.92166
678.0,34.201,4.99384
679.0,34.0564,3.78307
680.0,33.8071,1.88452
681.0,33.8355,1.82996
682.0,33.7439,3.24754
683.0,34.4483,4.74508
684.0,34.5014,4.77563
685.0,34.0482,3.33215
686.0,33.6066,1.46991
687.0,33.4919,1.54093
688.0,33.8721,2.72243
689.0,35.0731,1.91841
690.0,35.5294,0.455117
691.0,34.7239,0.44923
692.0,33.332,0.885256
693.0,32.8618,2.98626
694.0,34.0846,3.54751
695.0,35.4067,2.06223
696.0,35.2202,0.781332
697.0,33.4836,1.24364
698.0,31.8975,0.800492
699.0,32.0388,2.17156
700.0,32.9149,2.60811
701.0,33.7056,1.50911
702.0,33.9628,0.891694
703.0,32.2225,0.876324
704.0,31.2672,0.363049
705.0,31.9448,1.59798
706.0,33.5838,2.26467
707.0,35.0218,0.567615
708.0,34.5378,1.4051
709.0,32.8106,0.663534
710.0,32.6278,0.7509
711.0,33.286,2.82964
712.0,34.1169,2.65405
713.0,35.0847,0.0385655
714.0,33.8753,1.48964
715.0,32.4839,0.865811
716.0,32.3717,0.916371
717.0,33.1491,2.66844
718.0,36.1789,
719.0,34.9038,
720.0,33.107,
721.0,32.4612,
722.0,33.2591,
723.0,35.203,
724.0,36.2578,
725.0,34.5708,
726.0,32.2835,
727.0,31.4913,
728.0,32.5032,
729.0,34.8451,
730.0,35.6951,
731.0,33.784,
732.0,30.9639,
733.0,30.6011,
734.0,32.2693,
735.0,33.9691,
736.0,33.8421,
737.0,32.0737,
738.0,30.929,
739.0,30.9183,
740.0,32.5629,
741.0,34.2864,
742.0,33.9106,
743.0,32.1531,
744.0,31.1071,
745.0,31.4123,
746.0,33.1295,
747.0,34.4716,
748.0,33.5042,
749.0,31.7731,
750.0,30.9521,
751.0,31.3341,
752.0,33.5473,
753.0,35.0716,
754.0,33.4312,
755.0,31.538,