File: Exp-Data_Prepared-Final/FTT-White/2018/Ipe_50kW_hor_Average.csv
Time (s),HRRPUA (kW/m2),Uc HRRPUA (kW/m2)
0.0,-0.0116926,-1.75581
1.0,0.55319,2.29717
2.0,0.782023,1.94529
3.0,1.33628,2.62361
4.0,0.928878,3.66958
5.0,0.634054,5.06151
6.0,1.37504,6.85752
7.0,2.23548,8.26345
8.0,3.35032,9.86169
9.0,4.96618,12.465
10.0,4.44708,14.7738
11.0,4.20812,15.8069
12.0,4.93843,17.2544
13.0,6.02895,19.8539
14.0,8.31304,23.7815
15.0,9.30961,28.0419
16.0,8.82201,30.8179
17.0,9.73498,33.9482
18.0,11.8205,37.3282
19.0,14.1868,41.3924
20.0,15.5639,44.8538
21.0,16.0319,48.25
22.0,16.3439,50.444
23.0,17.533,52.3682
24.0,18.3365,52.1514
25.0,19.7444,54.4155
26.0,20.3608,56.7502
27.0,20.5385,59.3251
28.0,20.8829,59.7628
29.0,22.2349,60.0631
30.0,24.9285,60.2457
31.0,29.1988,61.9926
32.0,32.6662,63.1854
33.0,35.5051,63.656
34.0,38.8617,63.5043
35.0,42.4216,61.6289
36.0,46.7591,61.6857
37.0,50.6162,62.7438
38.0,53.8045,63.892
39.0,57.2,65.5534
40.0,62.0512,65.205
41.0,68.0227,65.9732
42.0,74.3541,68.4965
43.0,79.9425,70.1414
44.0,84.6758,73.6812
45.0,88.6312,76.0191
46.0,93.5468,78.8205
47.0,98.3969,80.5561
48.0,101.376,79.7407
49.0,105.526,80.7044
50.0,110.64,84.5298
51.0,113.517,84.9524
52.0,117.746,85.4229
53.0,121.92,86.2011
54.0,126.94,88.1793
55.0,129.95,90.2381
56.0,133.018,93.3207
57.0,135.261,94.927
58.0,138.048,95.4739
59.0,139.548,95.4456
60.0,141.633,95.6814
61.0,142.676,96.3169
62.0,143.515,96.8917
63.0,144.399,93.6328
64.0,147.936,86.4032
65.0,153.272,79.5589
66.0,158.774,74.3088
67.0,163.496,71.4695
68.0,168.409,68.3659
69.0,171.265,65.1872
70.0,175.71,61.0006
71.0,181.709,54.1443
72.0,186.048,46.0504
73.0,191.485,36.9778
74.0,194.29,27.526
75.0,197.77,20.9264
76.0,200.284,14.0528
77.0,201.66,15.0194
78.0,204.281,17.9238
79.0,206.447,19.3596
80.0,209.091,22.603
81.0,209.152,25.9648
82.0,208.168,26.5965
83.0,208.368,29.1892
84.0,208.177,29.6917
85.0,205.969,26.4652
86.0,204.385,25.656
87.0,204.337,27.9427
88.0,200.816,28.4628
89.0,198.443,28.9884
90.0,198.509,27.8328
91.0,195.214,24.4205
92.0,192.396,22.7973
93.0,191.546,23.9751
94.0,190.725,24.7996
95.0,188.7,23.7684
96.0,187.553,21.2179
97.0,187.97,18.9627
98.0,187.246,19.4277
99.0,185.837,20.5032
100.0,184.296,21.4324
101.0,182.177,19.986
102.0,180.574,17.6884
103.0,179.651,17.0155
104.0,176.698,16.4215
105.0,175.711,15.5341
106.0,174.378,16.3971
107.0,171.905,14.545
108.0,171.68,14.6968
109.0,171.403,14.9402
110.0,170.004,14.9938
111.0,168.952,16.2843
112.0,169.547,15.8156
113.0,169.058,14.0852
114.0,168.522,13.0634
115.0,167.321,12.3098
116.0,165.474,11.1156
117.0,165.917,12.3036
118.0,165.487,12.4283
119.0,165.596,12.443
120.0,166.083,9.99875
121.0,163.742,9.10805
122.0,163.456,10.3801
123.0,161.29,12.0474
124.0,161.371,12.2453
125.0,160.928,10.3808
126.0,159.774,9.58202
127.0,158.044,9.42264
128.0,158.006,9.71254
129.0,158.162,9.9396
130.0,157.23,9.5898
131.0,156.648,9.12124
132.0,155.352,8.74986
133.0,154.721,9.26186
134.0,155.57,9.39119
135.0,155.476,10.6605
136.0,154.869,10.393
137.0,153.92,9.22975
138.0,151.512,8.38866
139.0,151.176,9.59549
140.0,150.73,10.074
141.0,149.798,10.4537
142.0,151.205,11.2772
143.0,150.008,11.0168
144.0,148.44,9.78079
145.0,147.318,8.81164
146.0,147.782,9.86754
147.0,148.639,10.7226
148.0,147.542,8.76853
149.0,146.672,7.62272
150.0,148.185,7.99123
151.0,148.219,8.74267
152.0,147.475,9.3387
153.0,147.991,10.4215
154.0,147.762,10.0475
155.0,147.294,8.99953
156.0,146.122,9.00041
157.0,145.986,9.54229
158.0,146.338,10.7424
159.0,146.399,11.975
160.0,146.521,10.8939
161.0,146.183,8.81025
162.0,145.387,8.89583
163.0,145.21,8.55608
164.0,144.67,10.1268
165.0,144.08,10.3105
166.0,143.97,9.48537
167.0,144.633,10.0891
168.0,144.143,9.27627
169.0,144.042,8.82496
170.0,144.496,10.0874
171.0,144.607,9.88597
172.0,144.588,9.25789
173.0,143.974,8.74527
174.0,142.97,8.96049
175.0,143.086,8.58969
176.0,143.722,9.01873
177.0,144.018,9.46575
178.0,143.229,7.6924
179.0,142.86,7.88253
180.0,142.192,7.51028
181.0,141.997,7.44285
182.0,141.486,7.92687
183.0,142.342,6.8483
184.0,142.62,7.21747
185.0,143.198,7.03878
186.0,143.075,6.62451
187.0,143.942,6.86675
188.0,144.433,7.95882
189.0,144.883,7.87484
190.0,145.225,6.51223
191.0,143.725,6.37513
192.0,144.259,6.79433
193.0,144.996,7.73024
194.0,144.212,7.21677
195.0,144.857,7.95791
196.0,144.26,7.11609
197.0,143.7,6.77327
198.0,143.1,6.67871
199.0,143.528,6.26427
200.0,144.367,6.11212
201.0,144.633,6.81711
202.0,145.115,6.73175
203.0,144.723,6.74918
204.0,144.16,6.9322
205.0,145.627,7.38
206.0,145.674,9.20898
207.0,144.979,7.13055
208.0,145.521,7.77032
209.0,146.407,7.99691
210.0,145.047,7.6267
211.0,145.245,8.33916
212.0,146.487,8.3248
213.0,146.299,8.28662
214.0,145.867,8.5383
215.0,144.371,8.30467
216.0,144.505,8.04523
217.0,144.598,8.9035
218.0,145.461,8.80992
219.0,145.09,8.68588
220.0,144.928,8.86452
221.0,145.571,9.73626
222.0,144.799,8.51024
223.0,146.197,8.71121
224.0,145.572,8.94958
225.0,146.128,9.14053
226.0,145.344,9.26283
227.0,145.003,8.55144
228.0,145.011,8.63861
229.0,146.014,8.83225
230.0,145.791,8.5178
231.0,145.723,8.46813
232.0,145.899,9.12399
233.0,145.65,8.595
234.0,146.798,9.07029
235.0,146.468,8.83759
236.0,146.613,8.69361
237.0,146.556,8.99659
238.0,146.667,9.77711
239.0,147.485,9.74888
240.0,147.906,10.8047
241.0,147.371,10.075
242.0,147.303,10.7821
243.0,145.668,9.03864
244.0,145.837,9.3566
245.0,146.031,9.70966
246.0,146.236,10.7666
247.0,146.967,9.59713
248.0,147.482,9.64786
249.0,146.17,8.84887
250.0,146.292,8.49362
251.0,146.925,8.6204
252.0,146.899,7.89625
253.0,146.644,8.25894
254.0,146.048,8.00022
255.0,144.745,7.60622
256.0,145.314,6.60518
257.0,145.655,7.70784
258.0,146.132,8.30212
259.0,145.841,7.36905
260.0,146.681,7.20683
261.0,146.904,6.97855
262.0,145.685,6.58889
263.0,146.561,6.54561
264.0,146.57,7.49204
265.0,146.732,7.36184
266.0,146.784,5.83429
267.0,146.405,5.8406
268.0,146.516,5.99777
269.0,146.901,7.13684
270.0,147.615,6.96188
271.0,147.516,6.89991
272.0,147.181,6.21484
273.0,147.096,6.94143
274.0,146.545,6.21851
275.0,147.569,7.33058
276.0,147.782,8.48541
277.0,148.232,7.5744
278.0,146.819,4.4357
279.0,145.235,3.8308
280.0,146.443,4.16755
281.0,146.706,5.10381
282.0,145.577,6.21177
283.0,145.128,5.42924
284.0,145.792,4.64897
285.0,145.527,4.57878
286.0,145.721,6.87696
287.0,147.648,8.18085
288.0,147.489,6.72044
289.0,146.005,5.4495
290.0,146.5,4.10222
291.0,146.578,5.60276
292.0,145.938,6.02337
293.0,144.958,7.0376
294.0,146.181,6.46557
295.0,146.282,6.73061
296.0,145.21,6.36834
297.0,145.98,5.48371
298.0,146.9,8.13569
299.0,146.992,7.76008
300.0,146.541,8.50703
301.0,146.049,6.38262
302.0,145.679,5.36324
303.0,145.822,7.53284
304.0,144.888,6.99445
305.0,145.214,8.29733
306.0,145.185,7.54726
307.0,143.959,7.80133
308.0,143.894,8.16671
309.0,143.223,8.16914
310.0,143.791,10.3525
311.0,143.793,10.0008
312.0,143.203,10.323
313.0,143.745,10.7928
314.0,144.448,11.2346
315.0,142.608,11.3521
316.0,144.283,12.8105
317.0,144.577,12.6873
318.0,143.235,11.4241
319.0,141.727,11.3436
320.0,142.549,10.5963
321.0,142.11,11.5719
322.0,142.941,13.9256
323.0,142.447,12.8574
324.0,140.689,12.4105
325.0,140.347,10.6641
326.0,141.117,10.9593
327.0,140.547,13.0554
328.0,140.684,15.643
329.0,140.462,15.1979
330.0,139.58,12.9659
331.0,139.433,11.8568
332.0,139.333,11.5693
333.0,138.592,12.6374
334.0,140.496,13.1319
335.0,139.763,13.4588
336.0,140.109,13.583
337.0,139.772,12.2323
338.0,139.71,13.3577
339.0,141.147,15.0119
340.0,140.53,13.8846
341.0,140.772,12.586
342.0,140.246,10.8468
343.0,139.991,11.4148
344.0,139.782,12.8241
345.0,140.542,14.3337
346.0,140.498,13.7784
347.0,139.981,12.3024
348.0,140.694,11.2831
349.0,139.74,11.0815
350.0,139.34,11.7769
351.0,140.756,13.8897
352.0,140.675,13.3502
353.0,140.844,11.8731
354.0,141.141,11.4871
355.0,140.579,11.452
356.0,140.149,12.988
357.0,141.854,14.5666
358.0,142.08,14.1713
359.0,140.797,12.4854
360.0,140.499,13.4829
361.0,141.012,13.5499
362.0,141.346,15.2454
363.0,141.811,14.0953
364.0,142.199,13.7866
365.0,140.969,12.745
366.0,139.835,11.0709
367.0,140.72,11.9025
368.0,142.001,12.734
369.0,140.648,13.8684
370.0,140.963,12.6787
371.0,140.994,11.7438
372.0,140.698,9.65413
373.0,141.515,10.7144
374.0,142.305,10.7853
375.0,143.442,12.0526
376.0,143.542,10.7539
377.0,143.739,10.0644
378.0,144.809,9.80966
379.0,145.414,9.50049
380.0,145.86,10.5008
381.0,146.116,10.785
382.0,146.167,10.9232
383.0,146.933,11.4732
384.0,146.489,10.7326
385.0,147.505,11.1505
386.0,146.69,11.6913
387.0,147.757,12.301
388.0,146.558,11.8101
389.0,147.846,11.0259
390.0,146.963,10.0549
391.0,146.572,9.84727
392.0,148.581,11.8395
393.0,149.359,11.9739
394.0,150.75,11.4418
395.0,150.565,9.73755
396.0,152.086,8.21068
397.0,153.382,9.13245
398.0,153.666,9.68258
399.0,152.664,10.11
400.0,154.044,9.89685
401.0,153.248,9.43108
402.0,154.485,8.03196
403.0,154.266,8.21848
404.0,155.553,8.95038
405.0,155.834,10.6526
406.0,155.282,10.2351
407.0,155.573,8.70477
408.0,156.936,7.65162
409.0,157.887,7.87048
410.0,158.172,8.6305
411.0,158.706,9.80289
412.0,158.151,9.79543
413.0,158.44,9.55354
414.0,159.381,7.85142
415.0,160.54,8.96888
416.0,162.303,11.3994
417.0,162.841,12.5793
418.0,161.367,12.228
419.0,163.27,10.5715
420.0,163.864,9.73174
421.0,163.252,9.10923
422.0,163.408,12.1017
423.0,163.539,12.3215
424.0,165.02,11.5466
425.0,164.292,10.8687
426.0,164.777,8.94604
427.0,165.918,9.64895
428.0,166.161,11.2927
429.0,166.316,11.3937
430.0,165.945,12.1319
431.0,165.925,11.8989
432.0,166.3,11.723
433.0,167.38,13.9242
434.0,168.643,13.9504
435.0,169.842,15.6162
436.0,171.38,14.3398
437.0,172.268,14.6852
438.0,173.208,15.5325
439.0,174.362,16.7644
440.0,173.675,17.4403
441.0,174.776,18.0007
442.0,175.879,18.0169
443.0,176.825,17.382
444.0,177.247,17.1358
445.0,177.469,18.495
446.0,176.881,19.9103
447.0,178.069,19.5096
448.0,179.187,20.7697
449.0,180.438,19.4216
450.0,181.085,21.6552
451.0,184.669,22.6071
452.0,185.83,22.9529
453.0,186.718,23.5444
454.0,187.874,23.2333
455.0,189.332,22.5466
456.0,189.981,23.5337
457.0,191.331,25.0375
458.0,191.734,25.9851
459.0,192.785,25.6126
460.0,195.114,27.1279
461.0,195.389,26.9641
462.0,195.673,28.2603
463.0,194.974,30.763
464.0,193.968,31.8344
465.0,195.997,30.8108
466.0,197.055,30.9537
467.0,199.397,31.6215
468.0,200.871,33.654
469.0,201.584,34.3157
470.0,204.975,37.2468
471.0,205.098,38.8558
472.0,206.672,37.7531
473.0,208.625,38.0772
474.0,209.923,39.3094
475.0,211.627,42.3906
476.0,211.625,42.1317
477.0,213.033,43.9545
478.0,216.878,45.4863
479.0,216.436,44.3086
480.0,217.435,46.9379
481.0,218.112,47.7481
482.0,220.215,48.0962
483.0,222.878,48.5746
484.0,225.34,49.0068
485.0,230.494,50.9472
486.0,229.989,50.637
487.0,230.817,53.1828
488.0,232.889,55.1165
489.0,235.665,56.4232
490.0,236.378,56.4507
491.0,240.093,57.1585
492.0,242.937,59.9709
493.0,245.162,61.9873
494.0,249.01,64.2516
495.0,250.222,65.9763
496.0,250.777,65.982
497.0,252.336,66.5445
498.0,253.943,68.718
499.0,255.06,69.6506
500.0,258.63,70.102
501.0,259.828,70.6895
502.0,259.799,67.9642
503.0,263.753,69.7572
504.0,268.664,74.3995
505.0,267.669,72.9855
506.0,266.826,74.7323
507.0,267.457,73.284
508.0,271.073,72.6599
509.0,273.136,72.8185
510.0,275.047,75.8888
511.0,276.93,75.8387
512.0,278.451,76.114
513.0,280.772,75.7921
514.0,286.007,80.2191
515.0,283.288,78.2964
516.0,286.848,80.3715
517.0,285.934,78.6312
518.0,289.687,79.1398
519.0,293.885,77.9421
520.0,295.38,78.4117
521.0,296.73,76.8007
522.0,298.151,78.721
523.0,298.312,77.1905
524.0,304.396,80.3574
525.0,303.01,76.013
526.0,306.341,77.8989
527.0,308.302,76.9143
528.0,306.083,76.4956
529.0,306.723,76.0628
530.0,311.134,77.8925
531.0,312.682,77.5388
532.0,314.195,77.4416
533.0,316.462,79.0115
534.0,316.018,76.9037
535.0,319.068,76.6978
536.0,319.884,74.4772
537.0,320.111,70.7347
538.0,320.835,74.9182
539.0,322.711,74.0371
540.0,323.215,74.4367
541.0,322.593,72.188
542.0,328.778,73.8947
543.0,328.506,71.0897
544.0,329.162,69.772
545.0,328.918,70.0833
546.0,331.165,68.088
547.0,336.629,68.0057
548.0,340.555,66.5792
549.0,343.288,65.9538
550.0,344.967,65.02
551.0,342.4,64.6579
552.0,344.522,64.7557
553.0,346.429,66.6324
554.0,347.917,65.1498
555.0,346.79,61.7513
556.0,348.226,60.6811
557.0,351.677,60.801
558.0,350.27,60.6511
559.0,350.361,60.5282
560.0,352.374,59.2742
561.0,356.897,59.7367
562.0,356.05,58.0179
563.0,356.776,56.6749
564.0,359.697,53.9655
565.0,361.813,53.8678
566.0,358.457,52.1039
567.0,361.261,50.6415
568.0,363.584,53.4138
569.0,361.208,51.3087
570.0,361.426,47.7135
571.0,364.104,47.4743
572.0,366.077,45.4219
573.0,365.987,45.2788
574.0,366.931,47.1124
575.0,366.941,43.5313
576.0,366.496,40.1003
577.0,365.731,40.6735
578.0,367.353,40.7014
579.0,367.143,39.9885
580.0,366.812,39.7365
581.0,366.161,38.2207
582.0,365.72,39.2813
583.0,366.008,39.0619
584.0,365.579,37.374
585.0,366.912,37.5317
586.0,365.869,39.8338
587.0,366.143,37.8573
588.0,368.223,38.6808
589.0,364.565,37.5641
590.0,365.435,37.7261
591.0,360.927,35.3162
592.0,359.866,37.1917
593.0,357.004,34.5015
594.0,352.754,31.9515
595.0,351.816,34.1212
596.0,350.974,35.9334
597.0,348.226,38.1226
598.0,345.379,37.2339
599.0,342.017,38.635
600.0,337.199,38.2562
601.0,336.315,40.4249
602.0,337.822,42.803
603.0,332.543,41.2634
604.0,332.133,40.8465
605.0,331.565,44.9927
606.0,325.625,44.3452
607.0,324.073,49.7198
608.0,322.198,49.0637
609.0,321.658,50.4415
610.0,318.695,53.8375
611.0,314.101,54.0055
612.0,312.437,56.9098
613.0,310.946,59.8409
614.0,305.763,62.5773
615.0,304.77,64.5176
616.0,302.999,67.8229
617.0,298.759,69.0778
618.0,296.274,72.1893
619.0,295.46,76.4264
620.0,293.57,78.3084
621.0,290.788,77.7536
622.0,286.552,78.9612
623.0,285.348,80.7643
624.0,282.178,83.8141
625.0,283.341,88.1542
626.0,278.722,86.3866
627.0,278.496,88.5679
628.0,276.02,92.2807
629.0,273.931,94.8072
630.0,270.229,95.1892
631.0,269.465,98.8043
632.0,265.444,98.4876
633.0,265.261,101.331
634.0,262.561,104.274
635.0,258.999,102.925
636.0,257.071,105.384
637.0,252.797,105.151
638.0,253.149,108.013
639.0,249.494,111.287
640.0,248.249,111.474
641.0,248.016,115.391
642.0,244.803,116.601
643.0,243.534,117.56
644.0,240.762,117.069
645.0,241.157,121.048
646.0,239.297,120.171
647.0,234.99,119.424
648.0,233.052,121.384
649.0,230.399,122.458
650.0,230.407,122.474
651.0,227.081,124.168
652.0,221.413,122.68
653.0,220.407,122.314
654.0,218.638,121.715
655.0,218.841,124.394
656.0,215.505,121.836
657.0,212.169,119.709
658.0,210.877,120.494
659.0,208.64,121.748
660.0,205.681,121.249
661.0,202.282,118.781
662.0,201.386,118.708
663.0,196.852,118.251
664.0,196.467,120.104
665.0,194.848,120.297
666.0,191.682,117.716
667.0,190.6,117.956
668.0,186.673,116.147
669.0,183.809,116.433
670.0,181.118,115.437
671.0,177.77,113.881
672.0,176.847,114.022
673.0,175.528,114.527
674.0,171.364,110.659
675.0,168.855,110.617
676.0,166.823,110.441
677.0,166.335,112.537
678.0,162.501,108.621
679.0,160.618,106.401
680.0,158.592,108.146
681.0,155.769,106.878
682.0,154.129,107.664
683.0,152.702,108.416
684.0,150.047,106.822
685.0,146.949,103.998
686.0,144.772,103.04
687.0,143.562,102.629
688.0,140.455,102.4
689.0,138.392,101.349
690.0,135.252,97.8248
691.0,132.98,96.736
692.0,131.019,95.358
693.0,128.936,94.8635
694.0,126.998,93.4894
695.0,125.629,93.5665
696.0,122.572,90.7775
697.0,119.849,89.2586
698.0,118.398,88.366
699.0,116.819,87.3261
700.0,114.986,86.5459
701.0,113.771,85.0257
702.0,112.41,82.9545
703.0,110.006,79.0775
704.0,108.693,78.2176
705.0,108.523,80.1319
706.0,107.071,78.5559
707.0,105.901,75.4293
708.0,103.6,73.0031
709.0,102.079,72.8547
710.0,101.038,71.3024
711.0,100.605,72.2815
712.0,98.5541,70.1334
713.0,97.6129,68.1092
714.0,96.777,67.6237
715.0,95.5761,65.8091
716.0,94.3046,66.0206
717.0,93.5902,65.8108
718.0,92.7617,64.0317
719.0,91.2044,61.1185
720.0,90.3013,58.7494
721.0,89.3582,57.0249
722.0,87.6299,54.8542
723.0,87.1783,55.4171
724.0,86.0694,53.5467
725.0,85.4129,52.1311
726.0,83.6636,50.0168
727.0,82.0049,46.7811
728.0,81.9899,46.9213
729.0,81.1605,46.1487
730.0,80.5781,44.0678
731.0,79.6652,41.5658
732.0,78.4916,38.8323
733.0,77.3326,36.486
734.0,76.2389,34.7941
735.0,75.841,34.4732
736.0,74.9679,33.4717
737.0,74.2155,31.9729
738.0,73.2463,30.3039
739.0,72.8438,29.2095
740.0,72.6327,28.2121
741.0,72.5724,28.694
742.0,71.5614,26.8734
743.0,70.2341,24.3013
744.0,69.5261,23.48
745.0,69.0717,23.2147
746.0,68.8819,22.6611
747.0,68.5672,22.1868
748.0,68.2807,21.0747
749.0,68.1548,20.3961
750.0,67.7201,19.0883
751.0,67.6572,18.8587
752.0,67.0626,18.8653
753.0,66.9855,18.1728
754.0,66.193,16.1044
755.0,65.23,14.9133
756.0,64.5116,14.0286
757.0,63.9737,13.5706
758.0,64.1199,14.3823
759.0,63.9742,14.1707
760.0,63.5453,12.3054
761.0,63.1965,11.1189
762.0,62.8707,10.7279
763.0,62.382,11.2648
764.0,62.4893,11.9928
765.0,62.0915,11.2985
766.0,61.3304,9.53704
767.0,61.2391,9.08295
768.0,61.0948,9.27877
769.0,61.5132,9.19707
770.0,61.4794,9.76657
771.0,61.1783,9.11326
772.0,60.6245,7.77045
773.0,60.2294,7.44875
774.0,60.2968,7.76699
775.0,59.948,8.54605
776.0,59.9183,8.51958
777.0,59.5441,7.57933
778.0,59.2472,6.86326
779.0,59.4221,6.52491
780.0,59.2803,6.94287
781.0,59.1032,7.13948
782.0,59.3336,7.47455
783.0,59.3416,6.51055
784.0,58.8873,5.75612
785.0,58.6224,6.00499
786.0,58.0311,7.08137
787.0,58.3169,7.43986
788.0,58.7949,7.6868
789.0,58.3834,7.26992
790.0,58.0269,6.91455
791.0,57.9465,6.91088
792.0,58.0565,7.27824
793.0,58.1208,7.98542
794.0,58.7102,7.97999
795.0,58.7953,7.1145
796.0,58.3001,6.65312
797.0,58.4737,6.48181
798.0,58.5209,7.3044
799.0,58.5033,7.61068
800.0,58.0855,7.25486
801.0,57.9679,6.92688
802.0,57.5238,7.00853
803.0,57.6128,6.88578
804.0,57.4024,7.28909
805.0,58.8339,7.52113
806.0,58.1611,6.79585
807.0,57.9013,5.89468
808.0,58.0412,5.47962
809.0,58.2215,5.49463
810.0,58.5226,5.86691
811.0,58.1529,6.66512
812.0,57.2396,6.6634
813.0,57.0669,6.23959
814.0,56.8049,5.91663
815.0,56.9239,6.19575
816.0,56.6467,6.98125
817.0,56.4582,7.7162
818.0,56.5151,7.14792
819.0,56.209,6.8313
820.0,57.0336,5.58743
821.0,57.3208,5.65214
822.0,57.291,5.94992
823.0,57.8031,6.75971
824.0,57.2495,5.77339
825.0,56.6713,5.02643
826.0,56.9024,5.17258
827.0,56.8853,4.78638
828.0,56.8776,5.74536
829.0,56.4493,6.55642
830.0,56.0827,6.21583
831.0,56.078,5.73945
832.0,56.3034,5.41422
833.0,56.195,5.70083
834.0,56.3154,6.41128
835.0,56.0041,6.89867
836.0,55.1727,6.09467
837.0,55.2279,5.1729
838.0,55.4751,4.45857
839.0,55.8114,5.27981
840.0,56.091,6.01248
841.0,55.873,5.90869
842.0,55.2292,5.4162
843.0,54.8354,4.58088
844.0,55.4352,4.84358
845.0,55.8138,5.67873
846.0,55.9622,6.50346
847.0,55.5023,5.91374
848.0,55.1153,5.36892
849.0,54.1716,4.92749
850.0,54.646,4.46543
851.0,55.2508,4.72206
852.0,55.3379,5.23373
853.0,55.1406,5.34176
854.0,53.9408,4.66298
855.0,54.0482,4.60303
856.0,54.1529,4.48455
857.0,54.8245,5.48185
858.0,55.1967,6.01396
859.0,54.541,5.90044
860.0,54.122,5.27919
861.0,54.233,4.86297
862.0,54.7247,4.89972
863.0,55.0773,5.71315
864.0,55.405,5.86022
865.0,54.574,5.61729
866.0,54.0926,4.95233
867.0,54.3226,4.31162
868.0,54.5563,4.32404
869.0,55.568,5.04363
870.0,55.4645,5.33243
871.0,54.8792,4.92167
872.0,54.3377,4.50841
873.0,54.3763,4.72016
874.0,54.3067,4.74005
875.0,54.9584,5.30282
876.0,54.4325,5.18549
877.0,54.2268,4.98334
878.0,54.3429,4.70783
879.0,54.4625,4.30684
880.0,54.9209,4.8811
881.0,55.2745,5.56355
882.0,54.6209,5.34498
883.0,53.7586,5.53217
884.0,53.3225,5.36232
885.0,54.2516,4.28973
886.0,55.613,3.55027
887.0,56.2835,3.87266
888.0,55.6351,3.73401
889.0,54.3668,3.87864
890.0,54.0569,4.37824
891.0,54.4392,4.21856
892.0,54.559,3.70014
893.0,54.5819,3.79737
894.0,53.8454,5.18533
895.0,52.165,5.84902
896.0,50.0721,5.00721
897.0,51.0372,3.21107
898.0,52.1132,2.64195
899.0,52.7,4.09287
900.0,52.2435,4.96671
901.0,51.458,4.8493
902.0,50.8319,3.67445
903.0,51.4369,2.58527
904.0,54.3403,3.44166
905.0,56.2801,2.51761
906.0,55.8545,2.9329
907.0,54.0611,2.79515
908.0,53.0067,2.61793
909.0,53.3024,2.70384
910.0,54.8481,3.01798
911.0,55.3063,2.04595
912.0,55.6347,4.99277
913.0,52.9382,5.3712
914.0,51.8034,3.72149
915.0,51.2369,2.5996
916.0,52.4212,1.73428
917.0,54.8648,3.03992
918.0,53.9028,4.94924
919.0,50.9351,3.74841
920.0,50.4739,2.98098
921.0,50.704,2.02527
922.0,53.2934,1.24932
923.0,55.0447,1.33961
924.0,54.2283,2.4702
925.0,52.3261,2.41751
926.0,51.1881,1.69008
927.0,51.7332,2.19285
928.0,54.2442,2.304
929.0,55.0576,3.33276
930.0,54.8472,5.43654
931.0,52.5633,4.70773
932.0,52.5263,3.14534
933.0,54.205,2.57465
934.0,55.4865,1.93705
935.0,53.2534,
936.0,52.782,
937.0,50.3294,
938.0,50.4506,
939.0,50.8994,
940.0,53.4913,
941.0,52.1896,
942.0,50.0311,
943.0,50.1769,
944.0,48.6748,
945.0,50.6665,
946.0,52.4705,
947.0,51.752,
948.0,49.2427,
949.0,48.053,
950.0,49.5852,