File: Exp-Data_Prepared-Final/FTT-White/2018/Pine_50kW_hor_Average.csv
Time (s),HRRPUA (kW/m2),Uc HRRPUA (kW/m2)
0.0,-0.756465,-1.45603
1.0,0.638163,2.07098
2.0,1.32926,2.00628
3.0,0.395684,1.63331
4.0,-0.626108,-1.6644
5.0,-1.03842,-1.65672
6.0,-0.450167,-1.50154
7.0,1.10283,2.19163
8.0,1.44656,2.04705
9.0,0.296446,1.53355
10.0,-0.69027,-1.5936
11.0,-0.947527,-1.75794
12.0,-0.22501,-1.94526
13.0,1.23962,2.72324
14.0,1.44553,2.3064
15.0,0.248939,1.99053
16.0,-0.779079,-1.78197
17.0,-0.825734,-1.35499
18.0,0.218459,1.40469
19.0,1.77293,2.89629
20.0,1.29602,3.04221
21.0,0.109929,2.79533
22.0,-0.420145,-2.54626
23.0,0.0950454,2.46714
24.0,1.6116,2.79876
25.0,2.90598,3.41292
26.0,2.19006,3.5437
27.0,0.556844,4.55275
28.0,-0.980193,-7.17495
29.0,-1.65996,-8.46461
30.0,1.46864,4.72542
31.0,8.49781,18.0499
32.0,15.8222,37.5175
33.0,24.3978,58.2675
34.0,33.798,74.8558
35.0,43.545,88.5527
36.0,54.0096,97.7756
37.0,68.5016,104.347
38.0,85.8224,104.142
39.0,105.951,94.4419
40.0,131.558,88.039
41.0,152.905,83.3319
42.0,175.373,73.0005
43.0,192.606,51.801
44.0,202.262,30.3741
45.0,204.569,24.6923
46.0,202.474,23.5269
47.0,200.573,24.4826
48.0,195.412,26.4156
49.0,186.888,28.6422
50.0,177.743,27.2183
51.0,169.856,23.9721
52.0,161.214,20.8881
53.0,154.394,19.4326
54.0,148.991,17.6676
55.0,142.638,17.0724
56.0,135.954,14.7184
57.0,131.082,11.6886
58.0,126.641,9.36986
59.0,124.368,9.3252
60.0,122.647,9.44784
61.0,118.742,9.96156
62.0,115.462,9.01647
63.0,112.866,7.28723
64.0,110.847,6.8036
65.0,110.67,7.33043
66.0,108.038,6.75924
67.0,105.241,6.65284
68.0,103.578,6.03927
69.0,101.988,5.71569
70.0,101.573,5.71953
71.0,101.609,6.78435
72.0,101.004,7.41705
73.0,98.5252,7.61139
74.0,96.5614,6.55011
75.0,95.9495,7.42813
76.0,96.2249,7.77624
77.0,96.5152,8.35136
78.0,95.1744,7.2403
79.0,93.1553,5.71627
80.0,92.1033,6.22197
81.0,91.6693,6.69786
82.0,91.628,7.44753
83.0,92.3246,8.18054
84.0,90.7827,7.10616
85.0,88.7562,6.94084
86.0,87.705,7.4676
87.0,87.1046,7.36136
88.0,88.0791,8.58008
89.0,88.7577,8.61017
90.0,87.7655,8.30623
91.0,85.9781,7.87811
92.0,84.5168,7.55743
93.0,84.0733,8.2936
94.0,85.3769,9.16808
95.0,85.1749,9.03011
96.0,83.9527,8.70546
97.0,81.9033,7.60948
98.0,81.6192,7.73064
99.0,82.3381,8.1235
100.0,82.8441,8.31332
101.0,83.2152,8.36563
102.0,81.4788,8.21905
103.0,80.266,8.16372
104.0,79.7548,7.77973
105.0,79.8997,8.11829
106.0,80.9865,9.03161
107.0,80.6222,8.65514
108.0,78.9788,7.38595
109.0,77.5259,7.09265
110.0,76.9773,7.63857
111.0,77.6954,8.43955
112.0,78.9441,8.90567
113.0,77.9017,7.80262
114.0,76.9646,7.28658
115.0,76.1163,6.52936
116.0,75.8416,6.44657
117.0,76.5932,7.25232
118.0,77.1566,8.08064
119.0,76.4967,7.29504
120.0,75.2927,6.35246
121.0,74.3574,4.977
122.0,74.807,5.40722
123.0,75.4394,7.2103
124.0,76.0648,7.74686
125.0,75.4158,7.07729
126.0,74.1727,6.53968
127.0,72.6496,5.8284
128.0,72.5548,5.9503
129.0,74.1407,6.24927
130.0,74.8463,6.75152
131.0,73.9418,7.19783
132.0,72.2556,6.60828
133.0,72.493,7.71421
134.0,73.1184,8.31968
135.0,73.9158,9.19573
136.0,74.0841,8.79049
137.0,72.4744,7.77212
138.0,71.2839,7.67713
139.0,71.629,8.31835
140.0,71.8801,8.87232
141.0,73.3794,10.1287
142.0,72.9328,9.49348
143.0,71.6223,9.01312
144.0,70.0997,8.36021
145.0,70.235,8.78228
146.0,70.8944,8.9868
147.0,72.6734,10.3778
148.0,71.9856,9.81412
149.0,70.7436,9.24981
150.0,69.4605,9.632
151.0,69.033,9.33304
152.0,70.652,10.2825
153.0,71.6359,10.4095
154.0,70.8583,9.82705
155.0,69.3789,8.98977
156.0,68.3081,9.10389
157.0,69.2032,9.52299
158.0,69.8265,9.4498
159.0,70.2296,9.46484
160.0,69.1067,8.4732
161.0,68.2791,8.4105
162.0,67.7063,8.6201
163.0,68.5091,9.37129
164.0,69.449,9.70847
165.0,70.0477,9.23252
166.0,68.5921,9.34318
167.0,67.0246,8.07917
168.0,65.7909,7.16805
169.0,66.2363,7.49547
170.0,67.9288,8.60784
171.0,67.5737,8.55285
172.0,66.6789,7.95057
173.0,66.5106,8.54149
174.0,66.1538,7.90887
175.0,67.3553,8.21379
176.0,68.5835,9.35106
177.0,67.4626,8.07929
178.0,66.4668,7.63018
179.0,66.1076,8.17721
180.0,66.045,8.61724
181.0,67.6769,8.46811
182.0,68.5991,9.56879
183.0,68.3201,9.61488
184.0,67.1861,9.10777
185.0,65.8887,8.78555
186.0,66.435,8.58652
187.0,67.6073,9.14181
188.0,68.0514,8.93563
189.0,67.2034,8.89019
190.0,65.9715,8.63577
191.0,66.3568,8.35362
192.0,67.108,9.01609
193.0,67.9969,9.49886
194.0,67.8475,9.36792
195.0,66.7171,9.03757
196.0,65.7,8.47423
197.0,65.8917,7.74083
198.0,66.0788,8.15601
199.0,67.9241,8.98424
200.0,68.6426,9.17936
201.0,68.0185,9.03236
202.0,67.1941,8.55712
203.0,66.7973,8.21188
204.0,67.1424,9.28433
205.0,68.1774,9.4887
206.0,67.7294,9.09001
207.0,66.5216,8.29985
208.0,65.3818,8.37458
209.0,65.9965,8.18665
210.0,66.9829,8.33847
211.0,69.7356,9.24127
212.0,68.9627,9.16661
213.0,67.5859,8.65963
214.0,67.3205,8.18014
215.0,67.0519,8.18703
216.0,68.4991,7.91218
217.0,69.6403,8.41285
218.0,68.7527,7.58151
219.0,67.1865,7.66995
220.0,66.9452,7.36306
221.0,67.0589,7.471
222.0,68.3779,8.23576
223.0,69.3961,7.85113
224.0,68.3991,7.93173
225.0,67.3414,8.03249
226.0,66.2994,7.32065
227.0,66.2767,7.46821
228.0,67.9672,8.57453
229.0,68.675,8.64923
230.0,67.5325,8.2009
231.0,66.5861,7.81553
232.0,66.8321,7.76294
233.0,67.7112,8.40317
234.0,68.8302,9.0557
235.0,68.6044,9.66078
236.0,67.3663,9.12654
237.0,66.4666,9.30115
238.0,66.7561,9.26034
239.0,68.1876,8.89548
240.0,70.1797,9.42607
241.0,69.9981,9.47091
242.0,68.9687,9.0852
243.0,68.5464,9.18839
244.0,68.8308,9.72212
245.0,69.7526,10.1596
246.0,70.984,10.808
247.0,69.8882,9.84866
248.0,67.8959,9.71242
249.0,67.4975,10.5756
250.0,67.8953,10.0207
251.0,69.2403,10.2752
252.0,70.5577,10.5209
253.0,69.5448,9.99988
254.0,67.4044,9.12303
255.0,66.2347,8.91888
256.0,66.879,9.7035
257.0,68.503,11.1401
258.0,69.2082,10.79
259.0,68.2689,10.7976
260.0,67.344,10.6287
261.0,67.2031,10.781
262.0,68.4199,12.2347
263.0,69.3471,12.1095
264.0,70.0695,12.5775
265.0,68.9677,11.9566
266.0,68.3762,13.0187
267.0,68.1726,12.9556
268.0,69.5116,13.5502
269.0,70.9603,14.2419
270.0,71.008,14.5627
271.0,69.6456,14.3463
272.0,68.5901,14.5642
273.0,68.7991,14.72
274.0,69.7596,14.9122
275.0,71.6262,16.124
276.0,71.2835,15.9561
277.0,69.7826,15.1452
278.0,69.0788,15.9083
279.0,69.2205,15.7446
280.0,70.2598,16.6555
281.0,71.2044,17.0479
282.0,70.8691,16.2596
283.0,70.4418,16.5038
284.0,69.8057,16.8493
285.0,70.3319,17.5199
286.0,71.6967,17.8651
287.0,72.7776,16.7224
288.0,72.2555,16.572
289.0,70.8963,16.5504
290.0,71.0418,17.0123
291.0,71.4254,17.4487
292.0,72.6544,18.1727
293.0,72.9911,18.7323
294.0,71.8796,18.0403
295.0,70.4782,17.5429
296.0,70.528,18.1208
297.0,72.5431,20.1049
298.0,74.4247,19.5174
299.0,74.2708,19.2706
300.0,73.2868,19.4669
301.0,72.4088,19.1424
302.0,72.5164,20.2927
303.0,73.9219,20.7825
304.0,75.3096,20.9825
305.0,74.5708,20.2419
306.0,73.8293,19.409
307.0,73.4237,19.4428
308.0,74.3375,20.4338
309.0,75.4232,21.3995
310.0,77.142,21.3985
311.0,76.4849,21.0655
312.0,75.0151,21.2523
313.0,74.523,21.4657
314.0,74.7617,22.2667
315.0,76.7022,23.1558
316.0,78.5153,24.2181
317.0,77.1167,23.5397
318.0,76.6838,23.8744
319.0,76.42,24.0582
320.0,77.4813,25.1263
321.0,79.2439,26.2514
322.0,79.9611,25.5598
323.0,79.2518,26.3506
324.0,78.2693,26.6467
325.0,78.8452,26.8594
326.0,79.9601,27.2842
327.0,82.2124,28.0429
328.0,81.5373,27.0014
329.0,80.3311,27.3431
330.0,80.3246,29.029
331.0,80.6813,29.0383
332.0,81.5279,29.5116
333.0,83.3684,29.8296
334.0,82.8241,27.9652
335.0,81.3975,27.1368
336.0,81.3427,28.5491
337.0,81.9562,28.7159
338.0,83.0095,30.1224
339.0,85.1544,31.543
340.0,84.8048,29.8026
341.0,84.5874,29.9461
342.0,83.8448,29.9002
343.0,84.9301,31.0495
344.0,86.2993,31.6512
345.0,87.8894,33.1508
346.0,87.571,32.0018
347.0,86.2182,32.4316
348.0,85.7708,32.707
349.0,86.4297,32.494
350.0,87.9789,33.0415
351.0,89.0684,32.809
352.0,87.9829,31.824
353.0,86.777,31.7739
354.0,87.559,32.2021
355.0,88.8462,32.5675
356.0,91.515,33.1129
357.0,91.8604,33.2083
358.0,91.8481,33.161
359.0,90.19,31.992
360.0,90.4118,31.9646
361.0,91.837,33.2584
362.0,93.6891,33.2611
363.0,93.9411,31.8699
364.0,92.5416,33.0809
365.0,92.092,34.1161
366.0,93.085,34.4177
367.0,94.693,35.6395
368.0,96.4117,35.3524
369.0,96.4927,33.9708
370.0,95.1259,33.0882
371.0,94.854,32.9943
372.0,95.4991,32.4051
373.0,96.4937,32.5801
374.0,98.2594,33.0307
375.0,97.8072,31.1621
376.0,98.0039,32.5706
377.0,97.3556,31.7792
378.0,97.2418,31.5436
379.0,99.7106,32.8499
380.0,100.686,32.217
381.0,99.8572,31.5562
382.0,98.0725,30.6194
383.0,98.9339,30.4041
384.0,99.8362,31.5634
385.0,101.112,31.2521
386.0,102.711,30.4108
387.0,102.515,30.4955
388.0,101.372,29.8581
389.0,101.892,29.2439
390.0,103.475,30.1075
391.0,105.323,29.1297
392.0,105.319,28.4221
393.0,105.35,27.9057
394.0,104.437,26.3755
395.0,105.017,27.0229
396.0,106.833,27.2283
397.0,107.942,27.3317
398.0,107.196,25.9219
399.0,107.695,25.2361
400.0,106.95,25.0118
401.0,107.631,24.862
402.0,108.45,24.9389
403.0,111.28,24.3844
404.0,111.547,23.6055
405.0,110.534,22.5113
406.0,109.798,21.8135
407.0,110.87,21.9334
408.0,111.927,22.2073
409.0,114.237,21.1651
410.0,114.43,20.0822
411.0,112.32,19.0512
412.0,112.699,19.839
413.0,113.269,20.2422
414.0,114.641,19.6315
415.0,115.68,17.2888
416.0,115.132,16.5666
417.0,114.562,15.8588
418.0,115.314,15.9721
419.0,116.338,16.2753
420.0,118.218,16.322
421.0,118.531,15.9417
422.0,117.872,14.687
423.0,117.032,14.1854
424.0,117.521,15.5074
425.0,118.871,15.5732
426.0,120.446,13.7342
427.0,119.649,12.3243
428.0,119.097,11.8871
429.0,118.344,13.2912
430.0,119.299,12.8589
431.0,120.655,13.1268
432.0,121.009,11.2829
433.0,120.727,10.051
434.0,119.662,11.6854
435.0,119.436,12.6794
436.0,119.785,12.8017
437.0,120.429,11.8404
438.0,122.515,11.6979
439.0,123,11.7725
440.0,121.747,11.9239
441.0,121.148,12.0818
442.0,122.637,12.7399
443.0,124.702,13.5925
444.0,125.694,13.913
445.0,124.498,13.2472
446.0,123.6,13.1238
447.0,124.012,13.4958
448.0,124.063,13.6484
449.0,125.168,13.5849
450.0,125.427,13.3533
451.0,125.085,14.1137
452.0,125.073,15.29
453.0,124.73,16.4719
454.0,124.453,15.1798
455.0,125.651,14.5663
456.0,125.032,14.6946
457.0,124.492,15.8452
458.0,124.174,16.7025
459.0,123.819,17.3425
460.0,123.855,17.0895
461.0,126.87,16.7601
462.0,126.963,17.2589
463.0,125.252,18.8034
464.0,123.241,18.8121
465.0,122.737,19.3471
466.0,125.12,18.4667
467.0,126.008,19.2349
468.0,125.129,20.3659
469.0,124.278,21.1899
470.0,123.269,21.2178
471.0,123.805,21.6202
472.0,124.466,22.1632
473.0,125.381,21.9513
474.0,124.738,23.1607
475.0,122.656,24.4452
476.0,122.081,24.2696
477.0,123.397,23.609
478.0,124.371,23.5664
479.0,124.241,24.4921
480.0,123.665,25.8938
481.0,122.536,26.2961
482.0,121.628,26.4922
483.0,121.024,25.3723
484.0,122.873,25.2815
485.0,122.558,26.7663
486.0,121.38,27.6748
487.0,119.279,27.3552
488.0,119.299,27.653
489.0,120.996,27.7444
490.0,121.4,27.324
491.0,121.296,28.4334
492.0,118.871,28.8466
493.0,117.452,28.3987
494.0,117.748,28.2444
495.0,118.127,27.7339
496.0,118.95,27.8159
497.0,117.837,28.1477
498.0,116.503,28.5755
499.0,116.206,28.0308
500.0,115.876,28.366
501.0,117.56,28.5817
502.0,118.485,29.5459
503.0,116.385,29.9552
504.0,114.527,31.0606
505.0,114.777,31.2387
506.0,113.849,29.7033
507.0,114.778,29.7678
508.0,116.318,30.9722
509.0,114.445,31.4493
510.0,112.679,31.9592
511.0,112.341,32.1296
512.0,111.914,31.2303
513.0,112.557,31.2433
514.0,112.379,32.0477
515.0,111.002,33.1585
516.0,108.787,32.3735
517.0,108.48,31.8427
518.0,108.135,31.468
519.0,108.321,30.0134
520.0,107.926,31.0074
521.0,106.689,32.593
522.0,106.198,32.0167
523.0,106.441,32.0126
524.0,105.866,30.4861
525.0,106.819,30.9186
526.0,105.531,31.8277
527.0,104.351,33.2368
528.0,102.486,32.2948
529.0,102.763,31.4199
530.0,103.464,30.4525
531.0,104.109,30.9719
532.0,102.966,30.8205
533.0,101.193,31.3921
534.0,99.9475,30.8024
535.0,99.1325,29.4088
536.0,99.3826,28.9511
537.0,99.635,29.2841
538.0,97.4636,30.0999
539.0,95.9672,30.6639
540.0,95.2709,30.1101
541.0,95.6895,29.2159
542.0,96.3857,29.1877
543.0,95.2743,29.0516
544.0,93.5242,30.0174
545.0,92.3464,29.8808
546.0,91.4501,29.1651
547.0,91.4526,28.2713
548.0,92.3291,28.1304
549.0,91.8548,28.5749
550.0,89.48,29.8489
551.0,87.5615,29.0063
552.0,87.0409,27.8676
553.0,86.7326,27.24
554.0,87.4189,26.7636
555.0,86.7612,27.6032
556.0,84.8791,28.0477
557.0,83.1389,27.8458
558.0,82.1806,26.533
559.0,82.8072,25.8748
560.0,84.1109,25.6852
561.0,83.0493,27.0245
562.0,81.0089,27.9292
563.0,79.7654,27.4766
564.0,79.0052,26.8019
565.0,79.4663,25.8542
566.0,80.5458,26.518
567.0,79.1466,27.3522
568.0,77.7329,28.74
569.0,76.1113,27.1035
570.0,75.8922,25.834
571.0,76.9268,25.2437
572.0,77.0167,25.8156
573.0,75.6706,26.8552
574.0,73.726,27.0583
575.0,72.6566,26.1958
576.0,72.7717,24.9618
577.0,73.4965,24.291
578.0,72.8265,24.8683
579.0,71.4331,25.3042
580.0,70.0552,25.282
581.0,69.4307,24.1275
582.0,69.9908,22.749
583.0,70.6187,21.17
584.0,70.4028,22.123
585.0,68.4951,22.6245
586.0,67.2801,22.4539
587.0,66.6458,21.5486
588.0,66.5835,19.9117
589.0,67.5776,19.1475
590.0,66.213,19.9553
591.0,64.0983,21.1517
592.0,62.8387,20.8012
593.0,62.3724,19.2451
594.0,63.2472,18.3336
595.0,63.2222,17.8896
596.0,62.0289,18.5001
597.0,60.3753,18.7026
598.0,59.2283,17.5158
599.0,59.1045,16.291
600.0,59.9591,14.9411
601.0,60.4048,15.5165
602.0,58.9593,16.6705
603.0,57.3034,16.7742
604.0,56.5629,15.672
605.0,56.3772,14.8122
606.0,57.3131,14.2252
607.0,57.1277,15.029
608.0,56.1338,15.762
609.0,54.2812,15.0474
610.0,53.5423,13.9143
611.0,53.8659,12.4846
612.0,54.9424,11.9163
613.0,54.9418,13.3639
614.0,53.3623,13.3188
615.0,52.3652,12.7298
616.0,51.9522,11.2634
617.0,51.9113,9.95158
618.0,53.0012,9.61473
619.0,52.3326,10.9959
620.0,50.8985,11.5986
621.0,50.1424,11.2409
622.0,49.6478,9.96774
623.0,50.6131,8.8757
624.0,51.5809,8.9186
625.0,50.4361,10.0884
626.0,48.9947,11.1962
627.0,47.8844,10.4172
628.0,47.5991,8.96378
629.0,48.8793,8.50937
630.0,49.5572,8.40543
631.0,48.9001,9.31122
632.0,47.4024,9.79977
633.0,46.4118,8.66945
634.0,46.31,7.72426
635.0,47.7577,6.97726
636.0,48.194,7.42024
637.0,46.956,8.51591
638.0,45.8387,8.72816
639.0,45.0358,8.11989
640.0,45.9231,6.54653
641.0,47.3436,5.43755
642.0,47.5871,5.5927
643.0,45.8815,6.37917
644.0,44.3036,6.27494
645.0,43.4144,5.47925
646.0,43.5497,4.1248
647.0,44.6199,3.97399
648.0,44.6649,4.87493
649.0,42.9912,5.43722
650.0,41.6628,5.22039
651.0,41.0494,4.53756
652.0,41.8259,4.01565
653.0,42.7618,4.49483
654.0,42.356,4.97194
655.0,41.0172,5.13577
656.0,40.4233,4.59872
657.0,40.2625,3.71747
658.0,41.5263,3.54564
659.0,42.5955,4.12978
660.0,41.8338,4.68885
661.0,39.9492,4.40722
662.0,39.2706,3.82471
663.0,38.9519,2.95902
664.0,40.3282,2.80288
665.0,41.0908,3.88035
666.0,39.9046,4.6234
667.0,38.6353,4.41586
668.0,37.9144,4.25547
669.0,38.5509,3.36483
670.0,39.5866,2.84896
671.0,39.4078,3.55801
672.0,37.9942,3.72682
673.0,36.3798,3.65796
674.0,36.1201,3.11136
675.0,36.4369,2.04203
676.0,37.8115,2.5172
677.0,37.7624,3.05498
678.0,36.4492,2.95436
679.0,35.5462,2.95022
680.0,35.6884,2.90243
681.0,36.497,2.54611
682.0,37.6889,2.86521
683.0,37.067,3.2849
684.0,35.6025,3.3703
685.0,34.9959,2.92072
686.0,34.8481,2.52934
687.0,35.722,1.43494
688.0,37.1329,2.14203
689.0,36.3432,2.04018
690.0,34.8793,1.98259
691.0,33.8926,2.17632
692.0,34.2781,1.84189
693.0,35.4868,1.82232
694.0,36.621,2.86282
695.0,35.6158,2.50634
696.0,34.2633,2.44043
697.0,33.5973,1.77289
698.0,33.8073,1.13294
699.0,34.8433,1.95902
700.0,35.5075,2.74667
701.0,34.564,2.6806
702.0,33.3602,2.22172
703.0,32.9367,1.50028
704.0,33.7462,0.822128
705.0,35.0751,1.9564
706.0,35.4717,2.66793
707.0,34.5412,2.24525
708.0,33.1969,1.38544
709.0,32.917,0.696768
710.0,33.4706,1.57313
711.0,35.0086,3.28397
712.0,34.7743,3.51715
713.0,33.5199,2.46788
714.0,32.7072,1.81467
715.0,32.5312,1.86835
716.0,33.3063,3.04836
717.0,34.6793,4.16097
718.0,34.5444,3.53599
719.0,33.4704,2.33665
720.0,32.5506,1.21232
721.0,32.5624,1.48852
722.0,33.7733,2.59545
723.0,35.2185,3.65835
724.0,34.4554,2.72683
725.0,33.4346,2.09149
726.0,32.9482,0.894967
727.0,33.3384,1.04181
728.0,34.6227,2.2718
729.0,35.4119,3.24706
730.0,34.0682,2.8255
731.0,32.8602,2.21174
732.0,32.5382,1.49562
733.0,32.9075,1.73904
734.0,33.8548,2.46199
735.0,34.3958,3.04981
736.0,33.3336,2.89024
737.0,32.1016,2.66948
738.0,31.5363,2.07658
739.0,32.1775,1.42724
740.0,34.0627,2.51538
741.0,34.2413,3.21521
742.0,33.4834,3.37714
743.0,32.7245,2.43285
744.0,32.4608,1.51203
745.0,32.997,1.74665
746.0,34.285,3.30124
747.0,34.2785,3.801
748.0,32.8471,2.95472
749.0,32.2283,1.69251
750.0,32.5079,1.33822
751.0,33.2076,2.07659
752.0,34.5449,3.73264
753.0,33.7795,3.6137
754.0,32.3151,2.86016
755.0,31.4729,2.12835
756.0,31.7393,1.45274
757.0,32.5666,2.85548
758.0,33.3445,3.65767
759.0,32.9496,3.11997
760.0,31.7905,2.26091
761.0,31.4328,1.8126
762.0,32.0833,1.73456
763.0,33.1759,1.9461
764.0,33.8036,2.95464
765.0,32.8566,2.33473
766.0,31.9328,1.79602
767.0,31.0281,1.45924
768.0,31.8996,1.73557
769.0,32.6951,2.91485
770.0,32.8897,3.12177
771.0,32.2395,2.85646
772.0,31.3431,2.3788
773.0,31.1824,2.28195
774.0,31.8756,2.59863
775.0,32.807,3.08584
776.0,33.3489,3.23329
777.0,33.1575,2.7616
778.0,32.3704,1.77743
779.0,32.0954,1.0802
780.0,32.2871,1.70903
781.0,33.2767,3.67128
782.0,33.2915,3.51061
783.0,32.8389,2.55519
784.0,32.0494,1.48191
785.0,31.927,1.17341
786.0,31.8404,1.57416
787.0,32.7009,3.10484
788.0,32.1873,2.33627
789.0,31.9657,1.42267
790.0,31.4971,1.68238
791.0,30.998,1.71863
792.0,31.2881,1.46272
793.0,32.0452,3.52611
794.0,30.953,3.08315
795.0,29.9301,2.34108
796.0,30.348,2.51197
797.0,31.1025,2.0423
798.0,32.467,1.8911
799.0,32.6961,2.27534
800.0,31.5612,1.66136
801.0,30.7759,3.54482
802.0,31.6848,5.09306
803.0,31.6698,4.28617
804.0,32.5606,0.391099
805.0,31.7305,
806.0,31.9084,