File: Exp-Data_Prepared-Final/FTT-White/2018/RedCedar_30kW_vert_Average.csv
Time (s),HRRPUA (kW/m2),Uc HRRPUA (kW/m2)
0.0,0.297648,1.13994
2.0,1.28129,1.3865
4.0,1.76085,2.57916
6.0,2.58666,3.75632
8.0,1.84528,0.636294
10.0,1.63912,1.98203
12.0,2.53042,2.47339
14.0,0.98524,0.495139
16.0,0.389771,2.23138
18.0,1.76073,2.11904
20.0,0.658699,1.71932
22.0,0.221907,1.73632
24.0,1.35537,2.75275
26.0,-0.296076,-2.46307
28.0,-0.349367,-1.06368
30.0,0.675554,3.25464
32.0,-0.837711,-1.91193
34.0,-1.05729,-0.647734
36.0,-0.0279871,-2.62024
38.0,-0.84305,-2.93672
40.0,-0.753128,-1.00933
42.0,0.140886,2.03154
44.0,-1.17436,-4.05093
46.0,-0.70109,-0.478645
48.0,0.0856639,1.84235
50.0,0.0581365,3.10614
52.0,0.570092,1.18333
54.0,0.791877,0.646159
56.0,-0.113113,-3.73916
58.0,0.720035,0.898067
60.0,1.26382,1.56163
62.0,0.486504,1.95141
64.0,1.50179,2.592
66.0,0.653621,1.79423
68.0,0.227314,1.78087
70.0,0.21565,2.75839
72.0,-0.957547,-1.28894
74.0,-0.844516,-1.42453
76.0,0.570495,3.59792
78.0,-0.155778,-2.76349
80.0,0.14058,1.56848
82.0,1.56729,3.99208
84.0,0.483903,2.51961
86.0,0.0050482,1.31612
88.0,1.45943,4.38179
90.0,0.403971,2.581
92.0,0.634615,1.15562
94.0,2.18256,4.2581
96.0,0.377773,1.40348
98.0,0.517936,1.02259
100.0,1.31932,2.0497
102.0,-0.126104,-2.6021
104.0,1.04668,1.04562
106.0,2.31115,2.30423
108.0,1.34969,2.92055
110.0,1.49742,0.306421
112.0,2.1421,3.05071
114.0,1.25626,2.73188
116.0,1.6842,1.60504
118.0,1.9589,3.39866
120.0,1.13998,2.90493
122.0,1.21401,0.896235
124.0,1.15436,1.66749
126.0,1.00263,2.87153
128.0,1.63134,1.69442
130.0,1.07749,2.10184
132.0,0.992292,2.98956
134.0,2.34169,0.735655
136.0,2.07716,2.13988
138.0,2.48418,3.41018
140.0,3.82946,1.17106
142.0,2.76706,1.8975
144.0,2.60655,3.06717
146.0,4.32404,2.06573
148.0,3.32227,0.80988
150.0,3.55149,0.589226
152.0,5.35313,3.48525
154.0,4.12858,1.0961
156.0,4.20347,0.322383
158.0,5.84774,3.1119
160.0,4.63978,3.67754
162.0,4.73694,2.60462
164.0,5.59097,3.01167
166.0,3.81118,4.4076
168.0,3.88555,2.22379
170.0,4.98359,3.98167
172.0,3.79612,3.56112
174.0,4.79048,2.1016
176.0,5.66413,4.05742
178.0,5.23969,4.3607
180.0,6.20009,2.51127
182.0,6.95849,3.8982
184.0,6.43519,4.23536
186.0,6.95569,0.769615
188.0,6.9532,1.69418
190.0,6.24051,4.25411
192.0,6.96481,0.533126
194.0,6.5205,2.7211
196.0,6.18847,3.16138
198.0,7.92685,2.13493
200.0,7.54476,3.04718
202.0,7.39713,3.42515
204.0,8.71515,2.27396
206.0,7.58697,3.4777
208.0,7.83756,4.21698
210.0,9.55282,2.6439
212.0,8.52916,3.99513
214.0,9.06465,3.55631
216.0,10.5946,2.48902
218.0,9.34622,3.74763
220.0,10.1184,2.89584
222.0,11.2733,2.89329
224.0,9.76405,3.96694
226.0,10.5562,2.2811
228.0,11.2699,2.81494
230.0,9.98512,4.45368
232.0,10.5626,3.01891
234.0,11.7763,1.8494
236.0,10.8295,4.76742
238.0,10.9736,2.09421
240.0,12.0869,2.84302
242.0,11.6273,4.32801
244.0,11.8074,0.83872
246.0,12.6114,2.67904
248.0,12.3567,3.38714
250.0,12.8781,0.485494
252.0,12.093,1.04146
254.0,11.9793,4.02476
256.0,13.536,0.529668
258.0,13.1046,1.31015
260.0,12.477,3.67144
262.0,13.6875,0.856056
264.0,13.8124,1.19491
266.0,13.8157,3.58516
268.0,15.1045,1.23117
270.0,14.2164,1.41215
272.0,14.3251,2.80815
274.0,16.1554,1.36248
276.0,14.7596,0.886385
278.0,14.6891,2.43397
280.0,16.6038,4.05741
282.0,15.9139,2.73591
284.0,16.9332,4.10822
286.0,18.2349,4.10736
288.0,16.7116,3.05541
290.0,17.0117,4.26014
292.0,17.9438,2.88293
294.0,16.1021,2.67199
296.0,16.1078,1.67784
298.0,18.0003,2.84305
300.0,17.5419,3.04311
302.0,18.3871,3.96007
304.0,18.8769,2.64103
306.0,18.4593,3.49039
308.0,18.8845,1.64396
310.0,19.136,0.940848
312.0,18.2032,4.18284
314.0,18.5438,1.28267
316.0,18.7796,0.758074
318.0,18.03,4.91231
320.0,18.1665,1.30207
322.0,18.0891,2.50124
324.0,17.7095,5.08652
326.0,18.3919,1.34455
328.0,17.7571,2.79
330.0,17.9019,4.04002
332.0,19.0172,0.628036
334.0,18.0413,1.39888
336.0,17.8481,4.09258
338.0,18.815,1.61074
340.0,17.688,2.33948
342.0,17.7387,3.05338
344.0,19.2336,0.782883
346.0,17.9892,3.38868
348.0,18.3237,3.96398
350.0,20.8769,0.417976
352.0,19.416,4.55386
354.0,19.1879,3.10725
356.0,20.3754,1.08289
358.0,19.3746,3.62634
360.0,19.4401,2.32109
362.0,19.7878,0.729252
364.0,18.7528,3.34378
366.0,19.0564,1.38173
368.0,19.478,1.52598
370.0,18.3495,3.42695
372.0,18.7062,0.74516
374.0,18.8722,1.49101
376.0,17.7352,4.35684
378.0,18.212,0.659495
380.0,18.393,1.04873
382.0,18.0302,3.41858
384.0,19.9528,0.913898
386.0,20.1571,1.53205
388.0,19.4103,4.11515
390.0,19.7735,0.370498
392.0,19.1802,2.02632
394.0,19.6508,4.02784
396.0,21.1126,0.236214
398.0,19.8607,2.34314
400.0,18.8969,5.14369
402.0,20.2955,1.19404
404.0,19.4256,2.6704
406.0,19.8312,3.01475
408.0,21.1941,1.65635
410.0,20.3607,2.85769
412.0,19.944,3.64686
414.0,21.6557,0.533676
416.0,20.3322,3.84033
418.0,20.9404,3.45214
420.0,21.1137,1.14232
422.0,19.7573,3.02594
424.0,19.4553,2.14568
426.0,20.4841,0.539551
428.0,19.6072,4.55674
430.0,19.9868,3.22069
432.0,20.7925,1.87735
434.0,20.01,5.55254
436.0,20.9309,1.6797
438.0,21.1736,1.73034
440.0,20.4014,4.22233
442.0,20.3468,1.24888
444.0,20.8806,1.14253
446.0,20.0594,3.74139
448.0,20.5149,0.812698
450.0,21.199,0.76893
452.0,20.4025,3.58384
454.0,21.2814,0.99783
456.0,20.639,1.56411
458.0,20.7552,4.46173
460.0,21.2089,0.519309
462.0,20.7022,2.10566
464.0,20.0712,3.00354
466.0,22.218,1.37696
468.0,20.8821,1.68496
470.0,20.2184,2.95286
472.0,21.2046,1.25177
474.0,19.2928,3.22082
476.0,19.2364,4.12272
478.0,20.3996,0.817043
480.0,19.0221,3.34985
482.0,19.3321,2.68534
484.0,20.484,1.40183
486.0,18.9011,3.41929
488.0,18.9365,2.0805
490.0,20.4491,0.594026
492.0,19.5172,4.5022
494.0,19.3238,2.28489
496.0,21.2145,0.405507
498.0,20.5327,3.718
500.0,20.3716,0.772269
502.0,20.2866,1.78939
504.0,19.682,2.81865
506.0,20.4878,1.55369
508.0,20.8892,2.43113
510.0,20.4626,3.47631
512.0,20.4421,0.140819
514.0,19.7142,1.7318
516.0,19.5926,3.54628
518.0,20.2084,0.607262
520.0,19.8101,0.520818
522.0,19.3964,3.04762
524.0,20.132,2.03207
526.0,19.3994,1.76552
528.0,19.1715,1.76004
530.0,20.5667,3.3162
532.0,20.0768,0.967635
534.0,19.8697,1.64032
536.0,20.8309,2.3805
538.0,18.671,1.58848
540.0,19.0722,2.13536
542.0,20.2796,2.05206
544.0,18.5535,1.92147
546.0,18.2433,0.794959
548.0,19.9368,2.21796
550.0,19.0379,3.22623
552.0,19.4875,1.79616
554.0,20.9458,4.13803
556.0,19.8898,3.6237
558.0,19.8819,2.08134
560.0,20.3518,1.5973
562.0,19.009,4.34229
564.0,19.6894,1.45334
566.0,20.3225,2.44399
568.0,19.4041,3.79806
570.0,19.4882,0.211672
572.0,19.3956,1.96215
574.0,18.5663,4.1262
576.0,19.3758,0.385581
578.0,19.7483,1.00376
580.0,19.5639,3.00406
582.0,20.3719,1.69271
584.0,20.1026,0.792642
586.0,19.8108,2.88612
588.0,20.6425,1.53071
590.0,19.9303,1.6953
592.0,19.8061,3.24507
594.0,21.3263,1.92314
596.0,20.9764,1.54597
598.0,21.2918,3.52299
600.0,22.4157,2.17351
602.0,20.8308,2.65414
604.0,20.1953,3.43888
606.0,21.7796,0.9804
608.0,20.2739,3.23216
610.0,19.7332,2.49028
612.0,20.9704,2.15604
614.0,19.7259,1.72412
616.0,20.0537,0.748183
618.0,21.6449,2.52353
620.0,20.0691,2.05772
622.0,20.5614,1.36435
624.0,21.034,2.09196
626.0,20.4412,2.54133
628.0,20.6214,0.86602
630.0,21.2418,2.20744
632.0,20.1571,3.53274
634.0,20.1002,0.70487
636.0,20.565,1.4687
638.0,18.8522,3.10886
640.0,19.9791,1.09686
642.0,19.7793,0.313303
644.0,19.438,3.58296
646.0,20.6059,1.1128
648.0,20.1983,0.846087
650.0,20.1175,2.06211
652.0,20.7164,2.10046
654.0,20.0553,0.928248
656.0,19.9521,2.89366
658.0,21.4075,1.90269
660.0,20.847,1.98548
662.0,20.7271,3.12029
664.0,22.1231,1.68123
666.0,20.7498,1.54388
668.0,20.4471,2.67593
670.0,21.7382,1.14878
672.0,20.1131,3.0873
674.0,20.1328,3.06429
676.0,21.458,0.552696
678.0,19.6711,3.72405
680.0,19.3329,2.27051
682.0,19.9183,1.8988
684.0,18.8958,3.0602
686.0,19.4441,0.353638
688.0,20.7793,2.11304
690.0,20.6798,1.99952
692.0,21.1504,1.32072
694.0,21.4614,3.08996
696.0,20.566,2.77626
698.0,20.9548,1.51144
700.0,21.131,3.05434
702.0,20.5785,3.39068
704.0,20.8009,1.90642
706.0,20.8762,2.29413
708.0,20.1985,3.12515
710.0,20.3404,1.83992
712.0,19.8419,2.72845
714.0,20.0318,2.31102
716.0,20.5556,2.69559
718.0,19.7732,2.76704
720.0,19.6045,2.81464
722.0,20.5046,1.91959
724.0,19.734,2.22936
726.0,20.2264,3.07408
728.0,21.9564,1.41199
730.0,20.426,2.19433
732.0,20.4968,2.01421
734.0,22.3205,2.00472
736.0,23.0376,1.18419
738.0,22.8599,1.75013
740.0,23.8787,3.04584
742.0,22.1664,0.747343
744.0,22.1768,0.830028
746.0,23.234,3.03928
748.0,22.0052,1.67885
750.0,22.7141,0.822356
752.0,24.0478,3.56053
754.0,22.7923,1.59487
756.0,22.6084,1.20612
758.0,23.0355,2.53047
760.0,21.7221,2.12105
762.0,22.0294,0.685757
764.0,22.0523,2.1295
766.0,21.2877,2.98404
768.0,21.8827,0.934453
770.0,21.5138,2.5813
772.0,21.131,3.7909
774.0,22.3385,1.90827
776.0,22.2381,2.82276
778.0,21.9559,3.53052
780.0,22.8057,1.42444
782.0,21.7295,2.22371
784.0,21.7455,3.03557
786.0,22.776,2.39384
788.0,22.2007,2.48529
790.0,22.1701,2.14282
792.0,23.4816,2.62223
794.0,22.5119,2.3833
796.0,22.939,3.50663
798.0,24.3394,1.73503
800.0,22.0614,2.8848
802.0,22.2987,2.13021
804.0,24.0084,3.41881
806.0,22.8738,2.87852
808.0,23.2562,2.24934
810.0,24.3272,4.85633
812.0,22.6826,5.01342
814.0,23.0154,3.10869
816.0,23.7536,4.77757
818.0,22.0044,4.15949
820.0,22.6247,2.17324
822.0,23.4799,3.092
824.0,23.1449,4.28918
826.0,23.2775,1.65859
828.0,23.7272,3.86151
830.0,23.7058,4.96423
832.0,24.4125,1.85294
834.0,24.1007,3.07669
836.0,23.3598,3.63692
838.0,24.1579,3.5119
840.0,23.6024,4.51934
842.0,23.2616,3.61357
844.0,23.2742,3.92803
846.0,21.7981,4.57041
848.0,21.4658,3.49682
850.0,22.7677,4.61478
852.0,22.4554,4.37889
854.0,21.2995,3.31053
856.0,23.5143,3.77197
858.0,22.0776,3.33154
860.0,22.38,2.94432
862.0,23.7028,3.25685
864.0,22.6504,3.17606
866.0,23.3825,2.57741
868.0,25.08,3.05829
870.0,24.5147,2.65823
872.0,24.8304,1.75779
874.0,26.0225,5.37063
876.0,24.3619,2.49252
878.0,25.2116,1.29084
880.0,25.9412,4.33614
882.0,24.7968,2.44687
884.0,25.7855,2.46433
886.0,27.0413,5.50451
888.0,25.5767,4.63572
890.0,26.5655,3.86422
892.0,26.8292,4.18334
894.0,25.6328,3.43082
896.0,25.5936,3.19106
898.0,25.2935,5.23752
900.0,25.0873,4.75892
902.0,26.9354,5.23402
904.0,27.124,6.08937
906.0,27.239,5.3226
908.0,27.8504,6.19509
910.0,26.8355,6.32605
912.0,26.4356,4.05358
914.0,27.6404,5.7305
916.0,26.1129,5.65797
918.0,26.2725,4.28553
920.0,26.6475,7.33249
922.0,25.5082,5.52095
924.0,25.774,4.56916
926.0,27.3275,7.13162
928.0,25.8659,6.17528
930.0,26.7544,5.41479
932.0,28.3286,6.90468
934.0,27.053,5.43489
936.0,26.9004,4.35826
938.0,28.5561,8.12195
940.0,26.9066,5.40622
942.0,27.313,5.53286
944.0,28.4539,8.37661
946.0,27.63,6.2725
948.0,28.3148,6.95347
950.0,28.8745,8.94235
952.0,27.4708,6.56051
954.0,27.1507,7.03655
956.0,27.7956,9.63144
958.0,26.9939,7.28012
960.0,27.8526,8.44849
962.0,28.2174,10.0902
964.0,27.8347,6.63144
966.0,28.6395,9.39461
968.0,28.6546,11.0955
970.0,28.7069,8.84852
972.0,29.5993,12.055
974.0,28.7597,12.5684
976.0,28.173,9.72258
978.0,29.6789,11.6563
980.0,29.442,11.6353
982.0,29.5626,9.9222
984.0,31.1267,13.1249
986.0,30.4979,12.5731
988.0,24.3347,0.795483
990.0,24.2634,4.60263
992.0,23.4978,0.0995544
994.0,24.9869,0.414732
996.0,25.272,4.60421
998.0,25.2185,0.837153
1000.0,25.1718,0.930478
1002.0,24.334,4.27092
1004.0,24.2131,1.03983
1006.0,23.8387,2.41007
1008.0,23.3011,4.83639
1010.0,24.7107,1.79738
1012.0,25.5158,1.33834
1014.0,24.6781,2.57004
1016.0,24.8524,2.37678
1018.0,24.7734,1.8631
1020.0,24.6325,1.91973
1022.0,26.4375,2.8017
1024.0,27.1624,1.90051
1026.0,26.9636,0.985929
1028.0,27.8183,2.94952
1030.0,28.1975,3.0977
1032.0,27.1407,1.69978
1034.0,28.3626,1.64929
1036.0,27.3271,4.67192
1038.0,25.8635,1.25911
1040.0,26.4881,1.58809
1042.0,26.9413,3.09369
1044.0,25.4628,0.0201207
1046.0,26.6747,1.35313
1048.0,26.461,4.0663
1050.0,26.588,0.338493
1052.0,27.8754,0.0854158
1054.0,28.3987,5.35966
1056.0,27.8629,0.733182
1058.0,28.2232,1.01805
1060.0,28.5272,3.75524
1062.0,28.4829,0.623881
1064.0,28.1277,0.138973
1066.0,27.2409,2.20464
1068.0,27.1086,1.52493
1070.0,27.7453,1.4238
1072.0,27.4127,2.46097
1074.0,28.2098,4.24356
1076.0,28.4795,0.875697
1078.0,28.3207,1.66266
1080.0,27.1846,3.15832
1082.0,27.1817,0.727672
1084.0,27.0516,0.168313
1086.0,28.3084,4.17507
1088.0,29.2151,2.07023
1090.0,28.4284,2.36853
1092.0,29.0765,1.83358
1094.0,28.629,3.30253
1096.0,27.4501,1.97846
1098.0,29.0787,2.48476
1100.0,28.3485,3.72566
1102.0,27.4732,1.01481
1104.0,28.9694,3.08947
1106.0,28.7715,2.96339
1108.0,28.181,1.00709
1110.0,29.1483,0.647228
1112.0,29.0399,4.62957
1114.0,29.0048,0.105638
1116.0,29.9738,1.81696
1118.0,30.2175,3.24063
1120.0,29.9258,2.14747
1122.0,31.1464,2.94653
1124.0,31.1168,2.81735
1126.0,30.7928,1.96516
1128.0,31.8264,0.521066
1130.0,31.6602,4.07457
1132.0,31.3368,2.02913
1134.0,31.6487,0.164848
1136.0,30.8375,2.96
1138.0,31.5804,2.85138
1140.0,31.2836,1.19391
1142.0,30.4083,3.12749
1144.0,31.4582,4.05549
1146.0,31.4183,0.887912
1148.0,30.8177,0.173688
1150.0,31.0145,3.93366
1152.0,30.6915,0.180079
1154.0,30.93,0.0643442
1156.0,32.5067,4.98774
1158.0,32.0607,1.39853
1160.0,31.7406,0.89946
1162.0,33.03,1.53151
1164.0,32.5016,3.64342
1166.0,29.7824,0.626407
1168.0,31.4198,3.22382
1170.0,30.6352,2.70443
1172.0,30.3035,0.166238
1174.0,32.4726,0.839198
1176.0,33.3321,6.04061
1178.0,32.962,3.3491
1180.0,33.5041,3.87853
1182.0,32.6613,7.8086
1184.0,31.8585,4.68388
1186.0,32.3269,3.29224
1188.0,33.0018,6.61092
1190.0,33.16,1.48803
1192.0,34.2431,2.00295
1194.0,34.1614,5.19865
1196.0,34.9569,0.367392
1198.0,35.3439,1.03832
1200.0,34.9466,2.85433
1202.0,34.1733,1.01289
1204.0,34.9526,2.44441
1206.0,34.9707,4.63796
1208.0,35.234,0.114511
1210.0,35.1973,5.4002
1212.0,33.8309,4.61576
1214.0,34.5398,1.0105
1216.0,33.8401,4.04775
1218.0,33.5274,3.08094
1220.0,34.0704,1.282
1222.0,34.2574,4.08487
1224.0,34.2808,5.70947
1226.0,35.8714,2.72966
1228.0,35.4809,9.74165
1230.0,35.7335,7.29074
1232.0,37.0613,3.92239
1234.0,37.6944,9.59101
1236.0,36.2466,6.09995
1238.0,36.7539,5.01069
1240.0,36.3138,9.58751
1242.0,36.0271,6.17085
1244.0,36.1466,5.30076
1246.0,36.7918,11.0588
1248.0,36.1394,7.94338
1250.0,37.6784,7.71201
1252.0,37.7691,10.3987
1254.0,37.7387,4.14288
1256.0,38.3415,4.02137
1258.0,38.4666,8.11094
1260.0,38.889,4.30307
1262.0,38.6725,7.28273
1264.0,37.9711,9.82926
1266.0,39.2815,4.36952
1268.0,39.8703,7.83283
1270.0,39.7012,10.3286
1272.0,40.4831,5.129
1274.0,40.9591,9.35876
1276.0,41.6279,10.3791
1278.0,42.025,3.59523
1280.0,41.2857,10.2421
1282.0,40.6244,10.6525
1284.0,41.2417,6.54635
1286.0,41.5199,11.7727
1288.0,40.3284,10.1569
1290.0,41.4567,5.82218
1292.0,41.9602,11.3423
1294.0,41.0129,9.96518
1296.0,42.6571,6.72397
1298.0,41.7089,13.7107
1300.0,41.1425,11.317
1302.0,41.5571,10.3974
1304.0,41.9976,16.2089
1306.0,41.02,11.8543
1308.0,41.1437,10.4881
1310.0,42.4069,15.3509
1312.0,41.6174,11.4608
1314.0,42.962,12.609
1316.0,44.1043,17.8283
1318.0,43.5167,12.9177
1320.0,44.3686,13.0673
1322.0,42.8967,17.0786
1324.0,41.6842,11.8742
1326.0,42.6996,11.9534
1328.0,42.5116,14.5312
1330.0,43.2576,9.34283
1332.0,42.7787,13.1459
1334.0,42.4496,15.251
1336.0,43.295,11.104
1338.0,42.9239,12.9872
1340.0,42.5201,13.7528
1342.0,43.2246,8.51268
1344.0,43.7458,14.4086
1346.0,43.1289,15.8208
1348.0,43.6931,11.8744
1350.0,43.3731,16.407
1352.0,42.0259,13.8645
1354.0,43.1975,9.73593
1356.0,42.9713,15.2225
1358.0,41.9215,13.467
1360.0,42.4849,10.0661
1362.0,42.6715,15.7465
1364.0,42.5306,13.4779
1366.0,44.8528,12.4808
1368.0,44.4007,18.0332
1370.0,43.3259,14.7492
1372.0,44.0677,12.4414
1374.0,43.4547,17.9288
1376.0,42.4855,13.5813
1378.0,43.1479,12.7894
1380.0,42.9844,16.9474
1382.0,42.2174,11.9297
1384.0,41.9138,12.6174
1386.0,41.8883,15.3364
1388.0,41.7927,9.37592
1390.0,42.9176,10.9463
1392.0,42.8918,15.3411
1394.0,43.1822,9.91694
1396.0,42.2439,13.2707
1398.0,41.3999,15.5297
1400.0,41.9856,8.59163
1402.0,42.5555,12.0266
1404.0,42.4871,14.2153
1406.0,43.01,8.71106
1408.0,42.5825,14.6254
1410.0,41.5641,13.2296
1412.0,41.8721,7.60108
1414.0,41.6605,12.8219
1416.0,39.4853,12.5278
1418.0,39.9906,8.65684
1420.0,39.9639,14.7324
1422.0,39.4924,11.6802
1424.0,41.1032,7.63228
1426.0,41.1985,14.1666
1428.0,41.2544,10.3223
1430.0,41.7726,7.03421
1432.0,41.9194,11.0745
1434.0,41.9211,9.53545
1436.0,41.8533,10.3477
1438.0,42.1301,16.1293
1440.0,41.3701,11.8912
1442.0,41.6381,10.8253
1444.0,42.0429,16.9773
1446.0,42.3711,12.4586
1448.0,43.2032,12.6499
1450.0,42.5658,15.5251
1452.0,41.6216,10.0143
1454.0,41.9877,11.4137
1456.0,41.7596,15.7171
1458.0,41.1482,11.7794
1460.0,41.6825,13.7589
1462.0,42.4737,16.8897
1464.0,43.348,11.4208
1466.0,43.3387,14.6789
1468.0,42.7746,16.3994
1470.0,42.0929,11.5664
1472.0,41.5942,15.2606
1474.0,40.768,14.5623
1476.0,42.3271,10.1756
1478.0,42.5824,13.9373
1480.0,41.7149,13.616
1482.0,43.5382,10.1427
1484.0,43.9901,18.958
1486.0,43.9818,19.065
1488.0,35.0523,
1490.0,30.3805,
1492.0,30.9527,
1494.0,36.1637,
1496.0,32.6676,
1498.0,34.3284,
1500.0,36.7882,