File: Exp-Data_Prepared-Final/FTT-White/2018/RedCedar_50kW_hor_Average.csv
Time (s),HRRPUA (kW/m2),Uc HRRPUA (kW/m2)
0.0,0.0629486,2.57109
1.0,0.30161,1.96976
2.0,0.350695,1.48656
3.0,-0.0660397,-1.88663
4.0,-0.0654223,-2.52181
5.0,0.130145,2.17265
6.0,1.057,1.62766
7.0,1.48287,1.92791
8.0,0.922274,2.57348
9.0,0.173549,1.86705
10.0,-0.138384,-2.13011
11.0,-0.0232348,-2.1896
12.0,0.641782,2.48117
13.0,0.646918,2.22446
14.0,0.258456,1.86696
15.0,-0.107112,-1.73805
16.0,0.010481,2.41051
17.0,-0.033435,-2.35946
18.0,0.646921,2.88989
19.0,1.26329,3.15938
20.0,0.739619,2.89876
21.0,0.243633,2.76133
22.0,0.503349,2.50668
23.0,1.05458,2.52043
24.0,0.857543,3.58196
25.0,-0.594307,-5.35523
26.0,-1.5791,-5.21239
27.0,0.195072,3.90749
28.0,2.96777,13.5296
29.0,5.67129,25.2474
30.0,10.3868,33.3672
31.0,22.0859,40.9626
32.0,40.218,48.0903
33.0,62.6358,58.5989
34.0,83.1593,68.8921
35.0,105.476,76.0513
36.0,125.129,82.2765
37.0,136.86,88.4535
38.0,146.948,91.0701
39.0,155.634,86.3782
40.0,164.725,73.9925
41.0,175.351,55.2477
42.0,183.02,36.5501
43.0,188.757,22.0326
44.0,190.144,19.5825
45.0,190.66,28.3185
46.0,189.956,40.06
47.0,187.271,45.3446
48.0,183.708,49.0499
49.0,176.394,49.6414
50.0,173.39,48.4486
51.0,171.236,47.3105
52.0,165.452,47.2065
53.0,160.094,43.2571
54.0,155.753,40.2753
55.0,150.806,36.17
56.0,146.848,33.4013
57.0,143.179,32.325
58.0,140.493,31.2164
59.0,138.364,29.8429
60.0,135.153,28.473
61.0,132.383,26.6105
62.0,129.934,26.8966
63.0,126.506,25.4339
64.0,125.582,25.1858
65.0,124.331,24.4531
66.0,122.608,24.5622
67.0,120.321,23.3945
68.0,119.233,22.2652
69.0,117.516,23.1663
70.0,117.163,22.796
71.0,116.371,20.6473
72.0,115.115,20.7114
73.0,114.134,21.401
74.0,112.002,20.7485
75.0,111.505,19.503
76.0,110.8,19.5057
77.0,110.252,19.7587
78.0,108.194,19.9436
79.0,106.521,19.3902
80.0,105.027,18.7694
81.0,104.987,18.7309
82.0,104.463,17.5862
83.0,103.53,16.5941
84.0,102.49,15.4955
85.0,101.282,16.5271
86.0,100.467,16.76
87.0,100.417,16.8854
88.0,100.233,16.3518
89.0,99.1228,15.7112
90.0,97.7921,15.1352
91.0,97.3412,15.1821
92.0,96.6143,14.9207
93.0,96.4541,14.9788
94.0,96.5558,14.7483
95.0,96.2317,13.6304
96.0,95.8608,13.2829
97.0,95.2687,13.8492
98.0,94.6349,14.2457
99.0,94.4622,14.3814
100.0,95.2459,13.5272
101.0,93.9281,13.5773
102.0,92.0885,12.8658
103.0,91.4791,13.5607
104.0,90.7694,13.0289
105.0,90.3345,11.469
106.0,90.2025,12.0386
107.0,89.6249,11.4895
108.0,88.616,11.5043
109.0,88.3227,12.0122
110.0,87.6197,11.7979
111.0,88.0089,11.7347
112.0,87.1475,10.0401
113.0,85.8967,9.64791
114.0,85.9615,10.7436
115.0,85.8601,11.9599
116.0,85.8594,11.8506
117.0,86.2999,11.6276
118.0,85.4338,10.6833
119.0,85.2257,11.1173
120.0,84.0389,11.7848
121.0,83.9335,11.3664
122.0,83.5149,10.6309
123.0,83.0877,9.4741
124.0,83.1668,9.80429
125.0,81.9459,10.4184
126.0,81.2107,10.1413
127.0,80.6323,11.182
128.0,80.7884,10.5229
129.0,81.1285,10.1919
130.0,80.1104,9.38258
131.0,79.3862,10.2998
132.0,79.2059,11.5407
133.0,79.1163,10.2315
134.0,79.5926,9.63087
135.0,79.3691,9.53212
136.0,78.9525,10.0079
137.0,78.4263,11.0447
138.0,77.7059,11.3918
139.0,77.3454,10.6931
140.0,77.3861,9.75958
141.0,77.6834,9.99223
142.0,77.1521,10.4193
143.0,75.6938,11.4365
144.0,75.1992,11.6231
145.0,75.385,11.0665
146.0,76.0256,11.19
147.0,75.8904,10.7509
148.0,74.5291,11.2648
149.0,74.1014,12.1584
150.0,74.6996,11.0592
151.0,74.5087,10.616
152.0,73.4219,9.19497
153.0,73.3542,9.16921
154.0,74.5123,9.9557
155.0,73.5524,11.8918
156.0,72.7325,11.3038
157.0,73.6874,10.3881
158.0,74.1903,9.02901
159.0,73.2825,8.81162
160.0,72.167,9.88873
161.0,71.8003,10.7019
162.0,72.3247,9.69478
163.0,72.7923,9.01829
164.0,72.1337,8.35752
165.0,72.2963,9.0603
166.0,72.243,10.3423
167.0,71.4212,10.3828
168.0,71.3588,9.36996
169.0,72.8574,8.97263
170.0,72.8178,8.40645
171.0,71.1879,8.94153
172.0,70.6787,9.95401
173.0,71.3148,10.0975
174.0,72.1071,9.22678
175.0,71.2347,8.32424
176.0,71.3093,8.61846
177.0,71.1501,9.13252
178.0,70.7383,9.96127
179.0,69.8056,8.88631
180.0,70.3202,8.69955
181.0,71.5205,8.36076
182.0,71.6839,8.47676
183.0,71.0601,9.32889
184.0,70.1661,10.2218
185.0,70.2623,9.6346
186.0,71.0694,9.17227
187.0,70.8581,8.6096
188.0,70.4215,8.61736
189.0,69.9197,9.36758
190.0,69.8595,9.9663
191.0,69.994,9.2016
192.0,69.9839,9.35655
193.0,70.1542,9.1148
194.0,70.3261,9.74143
195.0,70.9033,10.7549
196.0,69.8414,10.4256
197.0,69.5263,9.6956
198.0,70.4377,9.41652
199.0,71.1052,9.29856
200.0,70.0742,9.60267
201.0,69.1095,10.4725
202.0,69.5268,10.9432
203.0,70.5467,10.3228
204.0,70.7785,9.5256
205.0,70.0176,9.13039
206.0,69.1624,9.78982
207.0,69.3583,10.3124
208.0,69.3206,10.0133
209.0,68.7322,9.11161
210.0,69.3274,8.83508
211.0,70.5178,8.58081
212.0,69.3174,9.71836
213.0,68.0412,10.3011
214.0,68.503,10.3702
215.0,69.9365,9.56526
216.0,69.9988,9.40292
217.0,69.1497,9.44905
218.0,69.2765,10.5658
219.0,69.5065,10.7618
220.0,69.0951,9.62611
221.0,69.1824,9.19189
222.0,69.5166,8.85153
223.0,69.6807,8.99084
224.0,69.5987,9.52199
225.0,68.2469,9.40409
226.0,68.0661,8.27809
227.0,69.3093,7.90285
228.0,69.5322,7.56934
229.0,68.8191,7.40397
230.0,68.3308,8.40489
231.0,68.6195,8.87779
232.0,68.1466,8.27652
233.0,68.4726,8.30246
234.0,68.6399,7.93456
235.0,69.0471,8.24796
236.0,67.8305,8.60635
237.0,67.1719,8.69012
238.0,68.2945,8.18583
239.0,69.2046,7.42146
240.0,69.2592,7.01063
241.0,68.516,7.7052
242.0,68.2111,8.79354
243.0,68.8464,8.03759
244.0,68.9513,7.23393
245.0,68.6447,6.79652
246.0,68.2053,6.5125
247.0,68.5033,7.09719
248.0,68.8582,8.22239
249.0,67.973,7.69114
250.0,68.2123,7.40709
251.0,68.6127,6.61425
252.0,69.7811,7.39675
253.0,68.1127,8.38274
254.0,67.842,8.73661
255.0,68.7557,8.68352
256.0,70.0233,7.83636
257.0,69.5142,6.97063
258.0,68.9985,7.52955
259.0,68.7823,8.25785
260.0,69.023,8.3168
261.0,68.384,7.91179
262.0,67.9754,7.52065
263.0,68.4083,7.1598
264.0,69.6334,7.17275
265.0,68.8265,7.86863
266.0,68.1022,8.48876
267.0,68.2572,7.99972
268.0,70.0567,7.74651
269.0,70.0596,7.29283
270.0,69.0687,7.4382
271.0,68.691,7.92102
272.0,69.9077,8.17676
273.0,70.7812,6.748
274.0,71.0329,6.7257
275.0,71.1168,6.13876
276.0,71.3021,6.21049
277.0,70.4591,6.90293
278.0,70.4454,7.66481
279.0,71.0322,6.99418
280.0,72.0528,6.18243
281.0,72.4609,5.65264
282.0,71.1118,6.89856
283.0,70.4689,7.3889
284.0,70.7593,6.96782
285.0,72.6456,6.13014
286.0,72.726,5.48961
287.0,72.1505,5.1681
288.0,72.2083,5.55802
289.0,73.0131,5.79319
290.0,72.0954,6.08178
291.0,72.3915,5.76017
292.0,73.6719,4.87093
293.0,74.0749,5.54069
294.0,73.0505,5.9431
295.0,73.0354,6.98861
296.0,74.3528,6.66271
297.0,75.2507,5.78327
298.0,74.7858,5.26422
299.0,73.8294,5.79513
300.0,74.0178,6.65413
301.0,75.0796,7.19869
302.0,74.9718,7.10706
303.0,75.1138,6.4146
304.0,76.1678,5.27697
305.0,76.3445,5.12702
306.0,75.9729,6.07889
307.0,75.9119,7.67006
308.0,76.7189,7.12743
309.0,78.1675,5.28714
310.0,78.8015,4.74791
311.0,78.2615,5.48331
312.0,77.9682,6.39943
313.0,78.5843,7.07719
314.0,79.7215,6.23728
315.0,79.4118,5.27848
316.0,78.8612,4.53783
317.0,79.6444,5.33317
318.0,79.4301,5.98328
319.0,79.8244,6.94032
320.0,80.5589,5.77618
321.0,80.9789,5.89273
322.0,81.5519,5.19972
323.0,81.7166,5.39599
324.0,80.5603,6.49792
325.0,81.8329,7.06402
326.0,82.2455,6.60213
327.0,81.8541,5.41018
328.0,81.9172,5.57337
329.0,82.5436,6.75495
330.0,83.2629,7.51174
331.0,83.12,8.15406
332.0,84.0778,7.14
333.0,84.3485,6.96375
334.0,84.6741,6.51852
335.0,83.8813,5.70808
336.0,84.0335,6.71414
337.0,85.6569,7.65597
338.0,87.3168,6.57573
339.0,87.3322,5.41541
340.0,86.7243,6.22849
341.0,86.2766,6.96621
342.0,86.7335,8.60414
343.0,87.3577,8.91624
344.0,88.2085,7.31015
345.0,88.7356,6.64117
346.0,89.1659,6.04971
347.0,88.8198,6.99869
348.0,89.5484,7.63329
349.0,89.8772,7.38788
350.0,91.422,7.63311
351.0,91.7853,7.75891
352.0,91.51,6.79202
353.0,90.8919,7.27639
354.0,91.5226,8.48317
355.0,92.6956,8.91715
356.0,92.1301,7.75292
357.0,92.554,7.75315
358.0,93.4119,8.04487
359.0,93.1596,8.45404
360.0,92.6082,9.21924
361.0,94.0336,8.46511
362.0,95.5718,6.87396
363.0,95.2146,7.48159
364.0,94.6739,7.90156
365.0,94.1621,8.38614
366.0,95.4016,8.43446
367.0,96.401,9.55832
368.0,96.2995,8.16583
369.0,97.167,7.15505
370.0,97.4397,7.9259
371.0,97.8891,9.71172
372.0,98.0521,9.26668
373.0,98.3543,8.93074
374.0,98.8653,7.92392
375.0,99.8683,8.55007
376.0,99.4194,9.85863
377.0,98.6703,9.07361
378.0,100.241,8.79359
379.0,101.778,7.61123
380.0,102.664,8.24666
381.0,102.244,8.09434
382.0,102.169,7.85396
383.0,103.05,8.9647
384.0,104.006,9.68742
385.0,104.138,8.94686
386.0,104.668,7.98863
387.0,103.991,8.62484
388.0,104.063,8.85056
389.0,104.057,8.99059
390.0,104.856,8.4888
391.0,105.748,7.97054
392.0,105.636,8.36591
393.0,105.046,7.74202
394.0,104.677,7.02992
395.0,105.833,8.49537
396.0,106.634,8.75784
397.0,107.032,8.33816
398.0,106.709,9.16865
399.0,107.369,8.80969
400.0,107.381,9.35406
401.0,107.562,8.36045
402.0,108.161,8.21597
403.0,109.34,8.64256
404.0,108.722,8.41224
405.0,108.551,7.7825
406.0,108.827,8.11233
407.0,109.733,8.46598
408.0,111.202,8.8079
409.0,110.352,8.66929
410.0,110.311,8.63228
411.0,111.041,7.9997
412.0,110.086,7.45184
413.0,110.712,7.21265
414.0,111.31,7.35952
415.0,112.469,8.30075
416.0,111.723,9.74141
417.0,111.048,8.41381
418.0,112.378,8.54884
419.0,113.773,9.14682
420.0,113.895,8.62649
421.0,113.369,9.93237
422.0,111.949,9.64641
423.0,113.038,8.46459
424.0,113.437,8.48844
425.0,113.514,8.71789
426.0,113.876,8.16616
427.0,112.9,8.78029
428.0,112.142,9.12899
429.0,111.581,8.53378
430.0,111.725,9.08236
431.0,113.196,8.49526
432.0,113.042,9.36182
433.0,111.95,9.39858
434.0,111.652,8.20217
435.0,111.764,6.84162
436.0,112.175,7.11696
437.0,112.388,8.94841
438.0,111.433,8.59792
439.0,111.037,9.06032
440.0,111.521,8.32036
441.0,110.87,7.5418
442.0,110.267,7.98162
443.0,110.659,7.72556
444.0,111.632,8.70742
445.0,110.743,9.32428
446.0,110.07,9.15149
447.0,109.897,8.34758
448.0,110.404,9.96137
449.0,109.837,10.1975
450.0,109.902,12.6629
451.0,109.652,13.1743
452.0,108.682,12.318
453.0,109.089,13.4189
454.0,108.936,14.2727
455.0,109.512,14.3267
456.0,108.492,14.3236
457.0,107.548,15.4746
458.0,107.817,16.463
459.0,107.919,15.3826
460.0,107.28,14.9525
461.0,108.074,16.4092
462.0,107.199,16.9636
463.0,105.912,16.4146
464.0,104.755,17.5511
465.0,104.914,18.127
466.0,104.979,18.425
467.0,104.512,19.273
468.0,104.237,20.1034
469.0,102.817,21.0649
470.0,103.697,20.9761
471.0,103.977,21.8179
472.0,102.442,22.32
473.0,101.608,23.2036
474.0,102.016,23.7142
475.0,100.977,24.4024
476.0,100.27,25.2809
477.0,99.9708,25.9271
478.0,100.23,25.9402
479.0,99.6674,25.3815
480.0,98.6921,27.4949
481.0,98.2357,28.1783
482.0,98.4181,27.83
483.0,98.0617,28.3556
484.0,97.8868,29.3138
485.0,97.1058,30.3905
486.0,96.8788,29.7906
487.0,95.7175,30.0365
488.0,94.7415,29.9495
489.0,94.9263,31.1569
490.0,95.4738,30.5804
491.0,94.5225,30.3627
492.0,93.6827,31.5777
493.0,92.86,32.6843
494.0,92.908,31.9515
495.0,93.4402,32.7371
496.0,92.803,33.4417
497.0,91.9963,34.0654
498.0,91.2327,34.096
499.0,90.6406,32.3596
500.0,90.0355,32.4922
501.0,90.5236,35.0847
502.0,90.2487,34.4285
503.0,89.7589,33.2752
504.0,88.2632,33.2955
505.0,87.178,33.8685
506.0,88.1132,33.7827
507.0,88.7806,33.4905
508.0,88.4413,34.5074
509.0,87.3655,35.2118
510.0,86.1493,34.9949
511.0,86.8003,34.6763
512.0,87.3569,34.0239
513.0,86.5128,34.6628
514.0,85.4264,34.335
515.0,84.8678,34.0033
516.0,84.6191,35.4
517.0,83.3293,35.6788
518.0,83.3929,35.9222
519.0,84.0979,35.3667
520.0,83.2981,34.9864
521.0,82.0122,36.524
522.0,80.9044,36.7882
523.0,80.8792,35.6985
524.0,80.7163,34.9855
525.0,80.4062,35.8995
526.0,79.6772,35.7244
527.0,78.8133,36.3829
528.0,78.6652,36.2511
529.0,77.3777,36.1346
530.0,77.4941,36.0316
531.0,77.2672,34.7471
532.0,76.8394,35.6893
533.0,75.6835,36.2288
534.0,75.0861,36.0292
535.0,76.1466,36.4538
536.0,75.7912,35.2916
537.0,75.2554,35.344
538.0,74.2381,35.3136
539.0,73.964,35.3502
540.0,74.1023,35.7004
541.0,74.3949,36.1666
542.0,73.6421,36.2618
543.0,73.5723,34.9526
544.0,72.9003,35.7602
545.0,72.0887,36.5474
546.0,71.8473,37.1171
547.0,71.7033,35.5825
548.0,72.621,35.9749
549.0,71.6917,35.7597
550.0,70.4759,36.3617
551.0,70.1731,36.6385
552.0,70.2607,36.3202
553.0,70.4037,35.9916
554.0,69.4439,35.8622
555.0,68.9339,36.2435
556.0,68.349,35.9926
557.0,68.3831,37.4349
558.0,67.9854,38.933
559.0,67.5979,37.6382
560.0,67.4141,37.2044
561.0,66.3507,37.6629
562.0,64.8827,37.956
563.0,65.1896,38.2097
564.0,64.6513,36.6304
565.0,64.5445,36.4614
566.0,63.5829,36.3528
567.0,63.0924,36.9999
568.0,63.3457,37.5682
569.0,62.9443,36.9626
570.0,63.0065,37.0625
571.0,63.3726,36.6605
572.0,62.9693,34.8791
573.0,62.5344,35.9412
574.0,61.4461,36.7093
575.0,61.4679,36.4276
576.0,62.3459,35.7362
577.0,62.1105,35.2056
578.0,61.3182,35.9931
579.0,60.5869,36.7732
580.0,60.3861,36.3639
581.0,60.7001,36.1347
582.0,60.1601,36.2758
583.0,59.705,35.3525
584.0,60.3669,35.1323
585.0,59.2299,35.6845
586.0,58.4287,36.245
587.0,58.4065,35.7698
588.0,58.8669,35.0999
589.0,58.8359,34.8199
590.0,57.868,35.4658
591.0,56.6797,36.3326
592.0,56.8666,36.1566
593.0,56.9298,34.4209
594.0,57.1119,33.9397
595.0,56.3221,33.6349
596.0,56.1834,32.9963
597.0,55.8335,33.9053
598.0,55.0491,33.618
599.0,55.1749,33.7822
600.0,56.035,32.9837
601.0,55.939,32.4618
602.0,54.6948,32.6372
603.0,54.243,33.6173
604.0,54.1664,32.6948
605.0,54.1822,32.1561
606.0,53.9603,32.0298
607.0,54.0129,31.6676
608.0,53.9606,32.7769
609.0,52.8157,31.7301
610.0,52.3993,31.1673
611.0,52.8362,30.5123
612.0,52.8321,28.8036
613.0,53.1211,29.0488
614.0,51.8963,29.512
615.0,51.5358,29.7702
616.0,51.6429,28.54
617.0,51.7058,27.6329
618.0,54.0819,28.4574
619.0,53.7487,29.1832
620.0,53.3878,30.6378
621.0,52.6408,30.2727
622.0,52.3623,29.0277
623.0,52.497,28.9773
624.0,52.4624,27.5308
625.0,51.6815,28.0521
626.0,51.0284,29.1772
627.0,50.6571,29.1831
628.0,51.0569,27.8834
629.0,50.9189,26.5259
630.0,50.1601,25.6548
631.0,48.989,25.1022
632.0,48.7707,25.1385
633.0,48.4565,24.0242
634.0,48.2661,23.1545
635.0,48.2256,22.6278
636.0,47.8139,21.9815
637.0,47.4802,22.1716
638.0,46.2512,22.5779
639.0,46.1919,22.4019
640.0,46.8242,21.3105
641.0,46.6625,20.3105
642.0,45.6123,20.2286
643.0,44.8976,20.7771
644.0,44.5197,20.7087
645.0,43.9595,19.5136
646.0,44.2904,19.2373
647.0,44.1576,18.1218
648.0,44.409,17.7749
649.0,43.7656,18.4115
650.0,42.7577,18.0926
651.0,42.8802,17.249
652.0,43.2203,15.9122
653.0,42.9688,14.888
654.0,41.7931,14.9958
655.0,40.729,16.1847
656.0,40.5895,16.1593
657.0,41.2914,14.9709
658.0,41.1113,14.3072
659.0,41.149,13.6565
660.0,40.7028,13.5781
661.0,40.1056,14.4044
662.0,39.3379,14.0375
663.0,39.4331,12.9581
664.0,40.1923,11.2494
665.0,39.8909,10.7127
666.0,38.8489,11.8042
667.0,38.2582,12.1829
668.0,38.2895,10.8789
669.0,38.6041,10.0792
670.0,38.4868,9.12636
671.0,38.1524,8.89322
672.0,37.5408,8.97675
673.0,36.8745,9.55908
674.0,36.5009,8.94745
675.0,36.5408,7.92153
676.0,37.1644,6.48388
677.0,36.942,6.35357
678.0,35.8818,7.84094
679.0,35.1994,7.85668
680.0,35.4174,6.66565
681.0,36.3018,5.93716
682.0,35.7094,6.09007
683.0,35.0083,6.66279
684.0,34.8889,7.32621
685.0,34.7054,6.87953
686.0,34.3404,6.14456
687.0,34.7387,5.25343
688.0,35.8175,4.28612
689.0,35.126,5.23284
690.0,34.614,6.44635
691.0,34.2245,6.13053
692.0,34.5962,5.36071
693.0,35.2896,4.40248
694.0,35.0632,3.81851
695.0,34.4118,4.60095
696.0,34.3311,5.97219
697.0,34.0855,5.5501
698.0,34.7516,4.61717
699.0,35.4684,3.35757
700.0,35.0698,3.86415
701.0,34.3882,5.12923
702.0,34.0719,6.08263
703.0,33.9686,5.26149
704.0,34.407,4.25022
705.0,34.5999,3.64491
706.0,34.7885,3.60638
707.0,34.333,5.02222
708.0,33.8119,5.78082
709.0,33.4561,5.51657
710.0,33.6951,4.30129
711.0,34.6222,3.45435
712.0,34.528,3.49495
713.0,33.3251,4.83938
714.0,32.924,5.53281
715.0,32.7067,4.58444
716.0,33.6442,3.84007
717.0,34.2409,2.50856
718.0,33.9292,2.99549
719.0,33.2575,4.71229
720.0,32.7107,4.96955
721.0,32.6992,4.03936
722.0,34.0095,3.48813
723.0,34.9788,2.98607
724.0,34.5793,3.5904
725.0,34.5164,5.51762
726.0,33.8022,5.85814
727.0,34.1953,5.05403
728.0,34.5647,3.85934
729.0,34.8994,3.05187
730.0,34.7329,3.87965
731.0,34.2768,5.09841
732.0,33.156,4.45153
733.0,33.5319,3.85214
734.0,33.8875,3.0997
735.0,34.2487,2.63004
736.0,34.2872,3.92343
737.0,33.5153,4.97536
738.0,32.9098,4.18876
739.0,33.1644,3.31256
740.0,33.8453,2.62522
741.0,33.6095,2.5892
742.0,33.3208,3.65271
743.0,32.9865,4.45326
744.0,32.4279,4.00268
745.0,32.9146,2.79891
746.0,33.2114,1.821
747.0,33.6403,2.73296
748.0,33.6375,4.01463
749.0,33.2778,4.40086
750.0,33.1352,3.91133
751.0,33.8913,2.59549
752.0,34.751,1.92539
753.0,34.238,2.563
754.0,33.6326,3.96808
755.0,33.1076,4.54166
756.0,32.8308,4.09258
757.0,33.1853,3.27466
758.0,33.713,1.62979
759.0,33.7524,2.27747
760.0,33.2672,4.37111
761.0,32.7786,4.15823
762.0,32.4166,4.2954
763.0,32.8418,3.18641
764.0,33.3215,2.13798
765.0,33.218,2.50741
766.0,32.6801,4.30171
767.0,32.1992,3.84356
768.0,32.0976,3.79197
769.0,32.6691,2.67663
770.0,33.0476,1.65808
771.0,32.5787,3.28415
772.0,32.9893,5.51669
773.0,32.7665,5.29297
774.0,32.7417,4.98427
775.0,32.8136,4.09263
776.0,33.0992,4.27273
777.0,33.4001,5.81746
778.0,33.2428,6.57238
779.0,33.1112,6.09823
780.0,32.8099,5.10032
781.0,32.7388,3.45169
782.0,33.4296,3.26245
783.0,34.0379,5.24564
784.0,34.4352,5.0455
785.0,34.027,4.23173
786.0,34.022,3.56848
787.0,34.2837,2.06963
788.0,33.9634,2.62909
789.0,34.5537,3.74257
790.0,33.8742,3.41928
791.0,32.4713,3.32687
792.0,32.2861,1.65032
793.0,33.5331,
794.0,35.5333,