File: Exp-Data_Prepared-Final/FTT-White/2018/RedCedar_25kW_vert_Average.csv
Time (s),HRRPUA (kW/m2),Uc HRRPUA (kW/m2)
0.0,0.525447,3.81585
1.0,-1.0826,-2.6307
2.0,-1.48674,-0.152772
3.0,-0.108288,-2.27601
4.0,2.01027,2.12168
5.0,2.0625,1.61902
6.0,0.779792,2.39623
7.0,-0.546781,-1.6949
8.0,-0.519016,-1.54192
9.0,1.02609,2.50919
10.0,1.82995,3.05017
11.0,1.29085,1.52216
12.0,-0.0675849,-2.13447
13.0,-1.433,-1.72021
14.0,-1.18075,-0.88595
15.0,0.550936,1.28448
16.0,2.05272,1.55528
17.0,1.59179,3.17193
18.0,0.293717,3.79662
19.0,-0.532884,-2.73963
20.0,0.0754529,1.58568
21.0,2.03574,1.27178
22.0,2.57016,1.73643
23.0,1.53086,3.40105
24.0,-0.290389,-3.34139
25.0,-1.37809,-1.6048
26.0,-1.13346,-1.00023
27.0,0.902327,1.92362
28.0,1.2767,1.09827
29.0,0.206826,2.67073
30.0,-1.34291,-2.35662
31.0,-1.61426,-1.28817
32.0,-0.214598,-1.61759
33.0,1.87789,1.49296
34.0,1.78984,1.17026
35.0,0.117725,2.54433
36.0,-1.50413,-1.70978
37.0,-1.62187,-0.353024
38.0,-0.531369,-1.04927
39.0,1.02639,1.17308
40.0,0.439842,1.82796
41.0,-1.08133,-3.0628
42.0,-2.29484,-2.0515
43.0,-2.23972,-0.727855
44.0,-0.910215,-1.75156
45.0,0.0154989,1.52642
46.0,-0.572048,-1.12085
47.0,-2.139,-1.77248
48.0,-3.17449,-0.572694
49.0,-2.79247,-1.10195
50.0,-0.334565,-2.02697
51.0,0.309745,1.24892
52.0,-0.836046,-2.42537
53.0,-2.48052,-2.59158
54.0,-3.29415,-1.27761
55.0,-2.62874,-0.301992
56.0,-0.668508,-1.3009
57.0,-0.456376,-0.737938
58.0,-1.05783,-2.40378
59.0,-2.65644,-2.52325
60.0,-3.07993,-1.33478
61.0,-1.97623,-1.53689
62.0,-0.111686,-1.95665
63.0,0.329384,0.61382
64.0,-0.875411,-2.27306
65.0,-2.00801,-2.16317
66.0,-2.3537,-0.990568
67.0,-1.10126,-1.18509
68.0,0.579693,1.34235
69.0,0.655293,1.35651
70.0,-0.298384,-2.30536
71.0,-1.60592,-1.41592
72.0,-1.58877,-0.769197
73.0,0.227542,2.22544
74.0,1.66209,1.99185
75.0,1.15977,1.35897
76.0,-0.242887,-2.06637
77.0,-1.15693,-0.976328
78.0,-0.906675,-1.22743
79.0,0.833262,2.34679
80.0,1.89068,1.50606
81.0,1.29783,1.27077
82.0,-0.38097,-1.64911
83.0,-1.35053,-0.744645
84.0,-1.147,-0.972657
85.0,0.601649,2.67414
86.0,1.65466,1.10527
87.0,0.892928,1.7224
88.0,-0.43756,-2.08256
89.0,-0.875582,-1.16369
90.0,0.111575,1.71518
91.0,1.96207,2.34345
92.0,2.22434,0.875961
93.0,1.16646,2.22332
94.0,-0.160282,-1.66025
95.0,-0.704944,-0.690998
96.0,0.392467,1.05656
97.0,2.35808,1.31425
98.0,2.32533,1.02044
99.0,1.29982,2.54395
100.0,-0.0317562,-1.74344
101.0,0.06449,1.2012
102.0,1.43086,2.08379
103.0,3.34823,2.43857
104.0,3.1586,1.47056
105.0,1.73908,2.41949
106.0,0.42639,1.94517
107.0,0.48926,2.00318
108.0,2.14662,2.73468
109.0,3.18283,2.56963
110.0,2.52423,1.49608
111.0,1.15948,2.17966
112.0,0.154293,2.08139
113.0,-0.0114265,-1.96136
114.0,1.58219,2.27685
115.0,2.24284,1.01324
116.0,1.15529,3.04663
117.0,-0.200605,-3.08175
118.0,-0.992654,-1.87221
119.0,-0.36147,-1.40314
120.0,1.59049,1.80369
121.0,2.40779,0.486187
122.0,1.49557,2.54593
123.0,-0.294326,-2.48361
124.0,-1.10785,-1.16392
125.0,0.027879,0.541235
126.0,2.32524,1.003
127.0,2.13053,1.38997
128.0,0.987188,2.69947
129.0,-0.318295,-1.91204
130.0,-0.495352,-0.362825
131.0,0.502972,1.70572
132.0,1.76301,2.72947
133.0,1.54342,0.506116
134.0,0.0575332,1.33928
135.0,-0.854474,-1.09505
136.0,-0.972963,-1.1692
137.0,0.431017,2.14521
138.0,2.1188,2.86954
139.0,1.47543,2.09387
140.0,0.145985,2.24
141.0,-0.915836,-1.21679
142.0,-0.40342,-1.12065
143.0,1.52587,2.55217
144.0,2.81425,2.02902
145.0,1.96413,0.249508
146.0,0.107859,0.923907
147.0,-0.751493,-0.56731
148.0,-0.160481,-2.29166
149.0,1.71234,3.5323
150.0,2.42231,2.22198
151.0,1.54289,0.255744
152.0,-0.287166,-0.643564
153.0,-1.11095,-0.803176
154.0,0.169161,1.98522
155.0,2.21472,2.92736
156.0,2.64934,1.50833
157.0,1.80224,1.07231
158.0,0.467154,0.841428
159.0,0.0946585,1.47395
160.0,1.52713,3.15806
161.0,3.40155,3.82437
162.0,3.65067,1.98501
163.0,2.48457,1.1407
164.0,0.958363,1.06478
165.0,0.472255,1.82604
166.0,1.43894,2.88051
167.0,2.68673,2.74942
168.0,2.03538,0.856544
169.0,0.215556,1.48566
170.0,-1.17322,-1.21564
171.0,-0.829369,-2.12162
172.0,0.871458,3.39564
173.0,2.36502,3.17771
174.0,2.21716,0.12697
175.0,0.988168,0.837576
176.0,-0.0305877,-0.508072
177.0,0.287656,1.9223
178.0,2.06853,3.16981
179.0,2.65247,2.20024
180.0,1.87799,1.3059
181.0,0.308006,1.50115
182.0,0.137293,0.826676
183.0,0.900351,1.88461
184.0,3.26187,2.52965
185.0,4.02942,1.28616
186.0,3.13929,1.41466
187.0,1.25061,1.39979
188.0,0.49375,0.289534
189.0,0.870886,1.77279
190.0,2.89163,2.90878
191.0,3.20095,1.19093
192.0,2.21182,1.14411
193.0,0.967455,1.31998
194.0,0.600625,0.894448
195.0,1.9961,2.04867
196.0,3.78659,2.45504
197.0,3.89604,0.500586
198.0,2.41168,0.980314
199.0,0.930871,0.242797
200.0,0.752492,1.63716
201.0,2.20454,3.14477
202.0,3.67814,3.12125
203.0,3.20819,0.66878
204.0,1.69184,0.879827
205.0,0.495295,0.246276
206.0,0.503516,1.65237
207.0,2.24368,2.36245
208.0,3.35026,1.77316
209.0,3.29499,1.2808
210.0,1.80203,1.43522
211.0,1.36233,0.350506
212.0,2.11159,1.48498
213.0,3.92148,3.016
214.0,4.97547,2.6061
215.0,4.44535,0.320563
216.0,3.15647,0.721402
217.0,2.49664,1.39912
218.0,3.65158,2.78687
219.0,5.52621,3.22994
220.0,5.93917,1.5832
221.0,4.94221,0.816186
222.0,3.64974,0.383749
223.0,2.82196,1.00964
224.0,3.71234,2.26032
225.0,5.48412,3.12437
226.0,5.78829,1.12091
227.0,4.71514,1.62207
228.0,3.35117,0.750073
229.0,3.03121,0.893649
230.0,4.65197,2.7199
231.0,6.55104,2.58523
232.0,6.66277,0.179118
233.0,5.659,1.853
234.0,4.52322,1.5223
235.0,4.15771,1.69702
236.0,5.89001,3.37148
237.0,7.18514,2.91578
238.0,7.01308,1.00819
239.0,5.4531,1.16518
240.0,4.64288,1.1541
241.0,5.1787,2.3786
242.0,6.92256,3.82856
243.0,7.92344,3.14987
244.0,7.66258,1.19066
245.0,6.17092,1.19256
246.0,5.32907,2.32597
247.0,5.66747,3.57844
248.0,7.45602,4.56648
249.0,7.89632,2.9705
250.0,7.17354,1.00113
251.0,5.57963,1.24097
252.0,4.8984,2.41958
253.0,6.5314,3.75535
254.0,8.65231,4.59474
255.0,8.90503,2.60171
256.0,7.75579,0.834569
257.0,6.00073,1.43948
258.0,5.46202,2.57441
259.0,6.57654,3.86748
260.0,8.41381,4.27179
261.0,8.78329,2.46945
262.0,7.67395,1.12091
263.0,7.13237,1.83471
264.0,7.03967,3.2993
265.0,8.10594,5.14974
266.0,9.49731,5.30606
267.0,9.1911,2.69018
268.0,7.59664,2.09168
269.0,6.37166,3.78222
270.0,6.70259,5.00944
271.0,8.70138,6.64612
272.0,10.3383,6.35267
273.0,9.93655,3.51729
274.0,8.85591,2.97998
275.0,8.69246,4.22774
276.0,9.58307,5.72718
277.0,11.5196,6.80664
278.0,12.5099,5.12144
279.0,11.7547,2.76728
280.0,10.3584,2.29096
281.0,9.59037,3.34636
282.0,10.5157,4.79637
283.0,12.675,5.40539
284.0,13.2823,4.09635
285.0,12.2893,2.01352
286.0,11.3708,2.69327
287.0,11.0676,4.28728
288.0,12.2544,5.97327
289.0,14.3937,6.45046
290.0,14.5362,4.01902
291.0,13.6707,1.5168
292.0,11.9153,1.86956
293.0,12.0093,3.24222
294.0,13.4458,4.64153
295.0,15.0438,4.80435
296.0,14.9852,2.42129
297.0,13.4869,1.59912
298.0,12.0799,2.08559
299.0,12.0284,3.19674
300.0,13.5302,4.70209
301.0,15.2989,4.15877
302.0,15.0191,1.69729
303.0,13.1779,0.688851
304.0,11.8028,0.853378
305.0,12.3357,2.52074
306.0,14.2065,3.90205
307.0,15.3059,2.83315
308.0,14.2985,1.11879
309.0,12.8428,0.723495
310.0,11.7525,1.60571
311.0,12.5033,3.57336
312.0,14.3032,4.78381
313.0,15.1765,3.56636
314.0,14.5507,1.26227
315.0,13.6214,1.70317
316.0,13.1998,3.49423
317.0,14.3898,4.63845
318.0,16.5863,5.538
319.0,16.8369,3.38694
320.0,15.4053,1.38001
321.0,13.5052,1.88819
322.0,12.753,2.40679
323.0,14.0596,3.65749
324.0,15.7809,3.9267
325.0,15.6686,1.44242
326.0,14.3528,0.192523
327.0,13.667,1.03645
328.0,13.7085,2.29342
329.0,15.3285,3.33379
330.0,16.6264,3.10558
331.0,16.4655,1.39916
332.0,15.1135,1.42733
333.0,14.1147,1.57036
334.0,14.4463,3.02738
335.0,16.3968,4.07032
336.0,17.7846,3.32413
337.0,17.2445,1.86882
338.0,15.8131,2.08454
339.0,14.7379,2.07903
340.0,15.12,2.89256
341.0,16.8737,3.86965
342.0,17.7839,2.75631
343.0,17.031,1.74145
344.0,15.4156,2.07188
345.0,14.5659,2.37404
346.0,15.5761,3.14555
347.0,17.6375,3.66048
348.0,18.2048,1.95468
349.0,17.2453,1.69179
350.0,15.2632,1.38806
351.0,15.138,1.06971
352.0,15.8212,2.13345
353.0,17.4728,3.05344
354.0,17.5755,1.3676
355.0,16.2322,1.98963
356.0,14.8073,1.53633
357.0,14.7813,1.45246
358.0,15.8291,2.36616
359.0,17.3964,2.72573
360.0,17.2267,0.387797
361.0,15.9989,1.47178
362.0,14.8812,1.54768
363.0,15.1576,1.14884
364.0,17.0056,2.44632
365.0,18.7513,2.23694
366.0,18.2999,0.781851
367.0,16.9474,1.94149
368.0,16.1309,0.966522
369.0,16.6733,0.173356
370.0,18.2906,1.43988
371.0,19.3118,0.689478
372.0,18.5668,2.05889
373.0,16.9542,2.73217
374.0,15.6693,1.92663
375.0,16.3466,1.57872
376.0,18.2634,2.52978
377.0,18.9946,1.18112
378.0,18.1414,1.6964
379.0,16.64,1.70287
380.0,16.2985,0.535595
381.0,17.0887,2.03433
382.0,19.2654,3.0352
383.0,19.6567,1.22574
384.0,18.3295,1.40015
385.0,16.8195,1.05855
386.0,16.6215,0.779147
387.0,17.8382,1.6834
388.0,19.7762,2.28486
389.0,19.5745,0.674495
390.0,18.6634,2.51553
391.0,17.0373,2.03859
392.0,17.2958,0.196968
393.0,18.7684,1.41469
394.0,20.5747,1.41784
395.0,20.5543,1.47172
396.0,19.1507,2.99378
397.0,17.3997,1.23026
398.0,17.2319,0.659905
399.0,18.2376,2.59382
400.0,19.6455,2.49213
401.0,19.1646,0.732861
402.0,17.5367,1.44715
403.0,16.5411,1.09822
404.0,17.1302,1.82411
405.0,19.0919,2.48601
406.0,20.089,1.5458
407.0,19.9343,1.57316
408.0,18.6606,1.52993
409.0,18.2064,0.478993
410.0,19.262,1.23399
411.0,21.3352,2.36692
412.0,21.9822,1.30016
413.0,21.2987,2.01684
414.0,19.5717,1.6009
415.0,19.2344,0.636754
416.0,20.0464,1.96305
417.0,22.3928,2.36999
418.0,22.7941,1.19743
419.0,21.0855,1.85725
420.0,19.6062,1.0662
421.0,19.2585,0.869987
422.0,20.2415,1.93912
423.0,21.4714,2.74096
424.0,21.5686,0.920455
425.0,20.3696,1.20213
426.0,18.9738,0.867663
427.0,18.8908,1.64842
428.0,20.3409,2.89031
429.0,21.5542,2.81881
430.0,20.9451,0.667739
431.0,19.7545,1.19259
432.0,18.7737,0.498585
433.0,18.721,0.866528
434.0,20.5439,2.39185
435.0,21.9092,1.64028
436.0,21.8239,1.42059
437.0,20.4194,2.14194
438.0,19.613,1.25919
439.0,20.1354,0.158084
440.0,21.742,1.58755
441.0,22.048,1.59554
442.0,21.1882,2.5354
443.0,19.7039,2.35366
444.0,18.7769,0.610682
445.0,19.5716,1.78133
446.0,21.2123,2.44673
447.0,21.5679,0.642784
448.0,20.7794,1.33575
449.0,19.133,1.26559
450.0,18.9474,0.460896
451.0,19.6305,1.82154
452.0,21.1668,2.19452
453.0,21.5817,0.564361
454.0,20.4672,2.53991
455.0,19.3118,1.64588
456.0,19.4762,0.171405
457.0,20.7164,1.69399
458.0,22.3207,1.6368
459.0,21.7271,1.31576
460.0,19.9567,2.84339
461.0,18.7203,2.03617
462.0,19.108,0.226608
463.0,20.5924,1.36803
464.0,21.8219,1.1574
465.0,21.394,1.68447
466.0,20.1689,2.64055
467.0,19.3018,1.19229
468.0,19.9736,0.34169
469.0,21.9788,1.00547
470.0,22.6659,0.904304
471.0,22.085,2.23771
472.0,20.0526,2.72675
473.0,19.0531,1.66436
474.0,19.5697,0.597047
475.0,21.131,0.712728
476.0,21.3814,1.79424
477.0,20.4843,4.20722
478.0,18.6674,4.55476
479.0,18.0447,3.06604
480.0,18.8037,1.90145
481.0,20.493,1.16877
482.0,20.7018,2.85003
483.0,19.6627,5.86495
484.0,18.4402,5.48078
485.0,17.6982,3.42489
486.0,19.1249,1.67313
487.0,21.0004,0.990027
488.0,21.1896,3.07509
489.0,20.355,4.4299
490.0,19.0859,3.54123
491.0,19.0334,1.92378
492.0,20.7606,1.24147
493.0,22.3213,0.959148
494.0,22.0565,3.65002
495.0,21.0398,4.26594
496.0,19.9806,3.06955
497.0,20.1243,1.61814
498.0,22.0098,0.539159
499.0,22.86,1.02235
500.0,21.8108,3.44676
501.0,20.3629,4.31306
502.0,19.5103,3.06225
503.0,20.3855,1.42142
504.0,22.3724,0.806129
505.0,23.1406,1.61956
506.0,22.4216,4.6221
507.0,20.8339,4.17192
508.0,19.6486,1.9274
509.0,20.137,1.01019
510.0,21.7541,2.30797
511.0,22.0402,0.593159
512.0,21.184,1.87728
513.0,19.6743,1.81888
514.0,19.4667,1.12216
515.0,20.6218,1.9238
516.0,22.7441,2.81899
517.0,22.3025,2.22875
518.0,21.1213,3.65752
519.0,19.3387,3.48505
520.0,19.337,2.92485
521.0,20.7651,3.51598
522.0,22.7853,3.40096
523.0,22.9245,2.83779
524.0,21.668,3.91002
525.0,20.4215,3.36675
526.0,20.7666,3.08547
527.0,22.1885,3.0003
528.0,23.4306,2.07264
529.0,22.5944,3.35794
530.0,20.9393,3.98362
531.0,19.709,2.9116
532.0,19.844,1.54369
533.0,21.0069,1.16561
534.0,21.712,0.181694
535.0,21.0978,2.8152
536.0,19.6338,3.2545
537.0,18.8623,2.29548
538.0,19.3551,1.04153
539.0,21.1592,0.984728
540.0,22.0856,1.51807
541.0,21.3346,4.16981
542.0,19.7946,3.98774
543.0,19.3172,2.84436
544.0,20.4253,1.59847
545.0,22.2274,1.10153
546.0,22.7982,3.26188
547.0,21.6841,5.6704
548.0,21.9301,5.61254
549.0,20.6714,4.62106
550.0,21.3199,3.21379
551.0,22.4657,2.46126
552.0,22.7422,4.74484
553.0,21.3908,6.60941
554.0,19.9807,6.47838
555.0,19.8209,4.2298
556.0,20.2917,2.64376
557.0,21.945,2.66572
558.0,22.6311,5.38352
559.0,21.8015,7.14786
560.0,20.436,6.46412
561.0,20.3805,5.47705
562.0,21.7495,4.04203
563.0,23.3259,4.46251
564.0,24.0589,8.30238
565.0,22.8939,9.59406
566.0,21.1177,8.53026
567.0,25.6747,
568.0,27.5109,
569.0,30.1597,
570.0,32.8317,
571.0,32.284,
572.0,30.0187,
573.0,26.7592,
574.0,24.856,
575.0,26.3776,
576.0,27.3226,
577.0,25.7332,
578.0,23.6728,
579.0,23.7142,
580.0,25.901,
581.0,28.9586,
582.0,29.9029,
583.0,29.0891,
584.0,26.8964,
585.0,27.3964,
586.0,28.6064,
587.0,32.1289,
588.0,33.6842,
589.0,32.0742,
590.0,31.0334,
591.0,31.454,
592.0,34.2685,
593.0,38.3702,
594.0,38.9564,
595.0,34.105,
596.0,29.075,
597.0,26.6889,
598.0,27.5976,
599.0,29.5226,
600.0,28.1909,
601.0,24.6926,
602.0,23.1835,
603.0,24.5958,
604.0,27.5299,
605.0,30.7752,
606.0,30.2353,
607.0,28.7424,
608.0,28.3787,
609.0,29.7342,
610.0,32.6245,
611.0,35.2051,
612.0,33.4014,
613.0,31.016,
614.0,31.4371,
615.0,33.909,
616.0,37.3384,
617.0,36.3966,
618.0,31.3902,
619.0,27.486,
620.0,25.2403,
621.0,25.4867,
622.0,28.2148,
623.0,28.4569,
624.0,27.0959,
625.0,25.8986,
626.0,26.3326,
627.0,28.8562,
628.0,32.0794,
629.0,32.1516,
630.0,30.6918,
631.0,30.3952,
632.0,31.1356,
633.0,33.5259,
634.0,37.4925,
635.0,37.4346,
636.0,36.6457,
637.0,35.6873,
638.0,36.6776,
639.0,37.7339,
640.0,36.7054,
641.0,31.439,
642.0,28.3106,
643.0,27.2715,
644.0,28.4294,
645.0,30.5029,
646.0,32.2805,
647.0,31.0572,
648.0,29.8861,
649.0,28.9313,
650.0,31.9569,
651.0,35.5444,
652.0,36.9542,
653.0,34.9939,
654.0,33.5678,
655.0,34.149,
656.0,36.3891,
657.0,40.121,
658.0,41.1998,
659.0,39.9491,
660.0,38.3927,
661.0,39.2665,
662.0,37.2517,
663.0,35.937,
664.0,33.0526,
665.0,29.1806,
666.0,27.4706,
667.0,27.5701,
668.0,29.3785,
669.0,31.5691,
670.0,30.5336,
671.0,29.0305,
672.0,28.9601,
673.0,29.8352,
674.0,32.7536,
675.0,35.4894,
676.0,33.7834,
677.0,31.3905,
678.0,31.4882,
679.0,33.2,
680.0,35.9847,
681.0,37.8109,
682.0,35.5541,
683.0,34.5458,
684.0,32.5262,
685.0,31.969,
686.0,33.5683,
687.0,32.9329,
688.0,30.7189,
689.0,28.9689,
690.0,29.9301,
691.0,31.09,
692.0,33.9568,
693.0,34.0773,
694.0,32.1313,
695.0,31.0873,
696.0,31.5722,
697.0,34.2651,
698.0,36.8732,
699.0,35.7486,
700.0,34.2384,
701.0,33.8519,
702.0,35.0487,
703.0,37.6041,
704.0,40.7241,
705.0,39.1283,
706.0,33.8193,
707.0,30.232,
708.0,29.8139,
709.0,32.3426,
710.0,33.4432,
711.0,30.4521,
712.0,28.4401,
713.0,28.0414,
714.0,29.8708,
715.0,33.1523,
716.0,34.6126,
717.0,32.8811,
718.0,31.0447,
719.0,30.4049,
720.0,32.5849,
721.0,35.9759,
722.0,36.0925,
723.0,34.5762,
724.0,33.3835,
725.0,33.6148,
726.0,36.203,
727.0,38.983,
728.0,36.401,
729.0,32.3825,
730.0,29.594,
731.0,29.7905,
732.0,31.6053,
733.0,32.6052,
734.0,30.4013,
735.0,28.5703,
736.0,27.9819,
737.0,29.6445,
738.0,31.6016,
739.0,33.4964,
740.0,33.2887,
741.0,31.3349,
742.0,30.3146,
743.0,32.0297,
744.0,35.4103,
745.0,37.171,
746.0,35.052,
747.0,32.6607,
748.0,32.0414,
749.0,33.6271,
750.0,34.8341,
751.0,34.6115,
752.0,31.1015,
753.0,29.1572,
754.0,29.1544,
755.0,30.2503,
756.0,32.937,
757.0,33.096,
758.0,30.3565,
759.0,28.744,
760.0,28.1235,
761.0,30.6349,
762.0,33.3958,
763.0,32.7811,
764.0,31.3061,
765.0,30.0842,
766.0,30.6762,
767.0,32.7876,
768.0,34.8681,
769.0,33.7953,
770.0,31.4317,
771.0,31.0652,
772.0,31.1975,
773.0,32.8705,
774.0,34.087,
775.0,32.2792,
776.0,30.2002,
777.0,30.0176,
778.0,32.4014,
779.0,35.2029,
780.0,35.4916,
781.0,33.8587,
782.0,32.3952,
783.0,32.2796,
784.0,33.6236,
785.0,36.2803,
786.0,36.2831,
787.0,33.5559,
788.0,32.5765,
789.0,32.3076,
790.0,33.0625,
791.0,35.6217,
792.0,34.6295,
793.0,31.5902,
794.0,31.008,
795.0,31.8785,
796.0,34.1487,
797.0,35.6119,
798.0,34.2214,
799.0,31.3317,
800.0,30.3685,
801.0,30.2778,
802.0,32.7052,
803.0,34.3055,
804.0,32.2378,
805.0,30.189,
806.0,29.3283,
807.0,30.5374,
808.0,32.609,
809.0,34.0734,
810.0,31.5619,
811.0,28.7929,
812.0,28.6028,
813.0,29.9028,
814.0,32.5888,
815.0,32.7543,
816.0,31.1771,
817.0,29.7632,
818.0,29.8497,
819.0,31.4004,
820.0,34.376,
821.0,35.1127,
822.0,32.8969,
823.0,30.3436,
824.0,30.2509,
825.0,32.0675,
826.0,34.6669,
827.0,33.5575,
828.0,30.7057,
829.0,29.4525,
830.0,30.2117,
831.0,32.9973,
832.0,34.8153,
833.0,33.1162,
834.0,30.6793,
835.0,29.4136,
836.0,30.1192,
837.0,32.5889,
838.0,32.9846,
839.0,31.7622,
840.0,29.5064,
841.0,28.7062,
842.0,29.3937,
843.0,32.3613,
844.0,34.0171,
845.0,31.1776,
846.0,27.8832,
847.0,27.943,
848.0,28.5857,
849.0,30.618,
850.0,31.3126,
851.0,28.1463,
852.0,25.9915,
853.0,26.174,
854.0,27.8873,
855.0,30.4056,
856.0,29.9272,
857.0,27.2932,
858.0,26.0153,
859.0,25.7833,
860.0,27.6977,
861.0,31.5451,
862.0,31.3031,
863.0,29.0887,
864.0,28.0762,
865.0,27.9547,
866.0,31.1175,
867.0,33.1161,
868.0,31.5857,
869.0,29.0865,
870.0,28.3067,
871.0,28.9445,
872.0,31.9449,
873.0,33.2984,
874.0,30.9388,
875.0,28.5022,
876.0,27.3582,
877.0,28.2883,
878.0,31.6469,
879.0,31.3827,
880.0,28.6619,
881.0,26.3964,
882.0,26.4399,
883.0,28.3703,
884.0,32.3378,
885.0,32.1867,
886.0,29.9599,
887.0,28.1565,
888.0,28.4294,
889.0,29.8854,
890.0,33.1913,
891.0,32.0616,
892.0,29.2582,
893.0,27.3492,
894.0,28.0538,
895.0,29.057,
896.0,31.357,
897.0,28.5575,
898.0,25.9504,
899.0,25.2684,
900.0,25.8352,
901.0,28.6422,
902.0,30.3569,
903.0,28.6697,
904.0,26.8834,
905.0,27.412,
906.0,29.6645,
907.0,32.7445,
908.0,33.3853,
909.0,31.1328,
910.0,28.9317,
911.0,29.0209,
912.0,29.0652,
913.0,31.4048,
914.0,31.7458,
915.0,28.5133,
916.0,27.0196,
917.0,27.2246,
918.0,29.0091,
919.0,31.2327,
920.0,30.6271,
921.0,28.1378,
922.0,26.1363,
923.0,26.9649,
924.0,29.0867,
925.0,31.5793,
926.0,30.6511,
927.0,29.1031,
928.0,29.0887,
929.0,29.8619,
930.0,32.5973,
931.0,33.6766,
932.0,31.7856,
933.0,29.5402,
934.0,28.9533,
935.0,29.7493,
936.0,31.7718,
937.0,32.9496,
938.0,31.0832,
939.0,29.2731,
940.0,29.4317,
941.0,30.5435,
942.0,33.3101,
943.0,33.9527,
944.0,32.0803,
945.0,28.5335,
946.0,28.5616,
947.0,29.9614,
948.0,33.1754,
949.0,33.6639,
950.0,31.6019,
951.0,30.0793,
952.0,29.568,
953.0,31.2626,
954.0,33.496,
955.0,32.1669,
956.0,29.6784,
957.0,27.9957,
958.0,27.9835,
959.0,30.3588,
960.0,32.8834,
961.0,31.4876,
962.0,28.6536,
963.0,27.8038,
964.0,28.4398,
965.0,30.4624,
966.0,33.1273,
967.0,31.1935,
968.0,29.4131,
969.0,28.7505,
970.0,30.0692,
971.0,32.4822,
972.0,34.299,
973.0,31.6499,
974.0,30.4289,
975.0,31.1574,
976.0,32.3356,
977.0,34.435,
978.0,34.2424,
979.0,31.9916,
980.0,30.1111,
981.0,30.225,
982.0,31.3954,
983.0,34.3655,
984.0,33.8535,
985.0,31.4495,
986.0,30.1363,
987.0,29.3313,
988.0,31.1232,
989.0,33.7315,
990.0,32.9198,
991.0,30.5732,
992.0,28.8072,
993.0,29.5975,
994.0,31.9414,
995.0,34.5409,
996.0,31.911,
997.0,28.9306,
998.0,28.429,
999.0,29.2991,
1000.0,31.7015,
1001.0,33.061,
1002.0,31.088,
1003.0,28.8623,
1004.0,28.0576,
1005.0,29.1227,
1006.0,32.4849,
1007.0,33.0062,
1008.0,31.2551,
1009.0,29.6833,
1010.0,29.2391,
1011.0,30.5389,
1012.0,32.8002,
1013.0,32.6659,
1014.0,29.8941,
1015.0,29.0245,
1016.0,29.8038,
1017.0,31.3315,
1018.0,33.6038,
1019.0,33.957,
1020.0,32.4804,
1021.0,30.5064,
1022.0,31.0168,
1023.0,32.217,
1024.0,34.0516,
1025.0,32.4981,
1026.0,30.2714,
1027.0,29.7441,
1028.0,30.1763,
1029.0,32.0819,
1030.0,34.1427,
1031.0,31.4402,
1032.0,28.4914,
1033.0,28.1636,
1034.0,29.2942,
1035.0,31.5827,
1036.0,33.501,
1037.0,31.4695,
1038.0,29.4082,
1039.0,29.9293,
1040.0,30.6252,
1041.0,33.4633,
1042.0,33.5611,
1043.0,31.2299,
1044.0,29.4123,
1045.0,29.6393,
1046.0,31.4411,
1047.0,33.3313,
1048.0,33.0966,
1049.0,30.9917,
1050.0,29.6036,
1051.0,29.6379,
1052.0,31.3314,
1053.0,34.3529,
1054.0,32.9249,
1055.0,30.1171,
1056.0,28.464,
1057.0,29.6649,
1058.0,31.9996,
1059.0,33.1243,
1060.0,31.7475,
1061.0,29.7084,
1062.0,28.5606,
1063.0,29.1726,
1064.0,31.8338,
1065.0,32.5376,
1066.0,30.4085,
1067.0,28.4281,
1068.0,27.9924,
1069.0,29.8255,
1070.0,32.1006,
1071.0,32.8239,
1072.0,31.1391,
1073.0,29.6385,
1074.0,29.2346,
1075.0,30.7983,
1076.0,32.6171,
1077.0,32.693,
1078.0,30.3828,
1079.0,28.6185,
1080.0,28.2558,
1081.0,29.5932,
1082.0,32.757,
1083.0,32.4114,
1084.0,30.055,
1085.0,28.8508,
1086.0,29.5524,
1087.0,31.5043,
1088.0,33.5929,
1089.0,31.8681,
1090.0,29.5763,
1091.0,28.2531,
1092.0,28.8917,
1093.0,31.5828,
1094.0,32.6137,
1095.0,31.4403,
1096.0,28.8825,
1097.0,28.4854,
1098.0,29.4133,
1099.0,32.5974,
1100.0,33.7569,
1101.0,32.1428,
1102.0,29.3492,
1103.0,29.6864,
1104.0,31.6858,
1105.0,34.1847,
1106.0,34.0251,
1107.0,31.3529,
1108.0,29.637,
1109.0,28.9644,
1110.0,30.5442,
1111.0,33.6697,
1112.0,32.7886,
1113.0,29.8588,
1114.0,29.2004,
1115.0,28.8176,
1116.0,30.4408,
1117.0,33.034,
1118.0,32.4679,
1119.0,30.2372,
1120.0,29.1811,
1121.0,29.3728,
1122.0,31.7581,
1123.0,33.5371,
1124.0,33.3082,
1125.0,31.2989,
1126.0,30.0814,
1127.0,30.8089,
1128.0,33.389,
1129.0,35.2061,
1130.0,33.403,
1131.0,30.6099,
1132.0,29.9148,
1133.0,31.0908,
1134.0,33.4354,
1135.0,34.0639,
1136.0,31.9783,
1137.0,30.0264,
1138.0,29.3431,
1139.0,29.4746,
1140.0,32.6629,
1141.0,33.0058,
1142.0,30.1074,
1143.0,28.3905,
1144.0,29.2622,
1145.0,30.7073,
1146.0,33.7173,
1147.0,33.6587,
1148.0,31.9803,
1149.0,30.7635,
1150.0,31.3922,
1151.0,33.5172,
1152.0,35.6259,
1153.0,35.1456,
1154.0,31.7661,
1155.0,30.243,
1156.0,31.0708,
1157.0,33.5884,
1158.0,35.1847,
1159.0,32.2885,
1160.0,31.1922,
1161.0,29.687,
1162.0,30.5911,
1163.0,32.59,
1164.0,34.4382,
1165.0,32.2073,
1166.0,29.684,
1167.0,28.9014,
1168.0,30.7154,
1169.0,33.9645,
1170.0,34.6061,
1171.0,32.3926,
1172.0,31.0001,
1173.0,29.9299,
1174.0,31.0976,
1175.0,32.7604,
1176.0,32.2429,
1177.0,30.0857,
1178.0,28.2583,
1179.0,28.3839,
1180.0,30.701,
1181.0,34.2939,
1182.0,31.6178,
1183.0,30.2809,
1184.0,29.4517,
1185.0,29.495,
1186.0,31.7836,
1187.0,34.4078,
1188.0,32.2326,
1189.0,30.4752,
1190.0,29.5976,
1191.0,30.4038,
1192.0,32.2405,
1193.0,34.353,
1194.0,32.8969,
1195.0,30.4472,
1196.0,30.4147,
1197.0,30.7936,
1198.0,33.4102,
1199.0,34.8139,
1200.0,32.8614,