File: Exp-Data_Prepared-Final/FTT-White/2018/Redwood_50kW_hor_Average.csv
Time (s),HRRPUA (kW/m2),Uc HRRPUA (kW/m2)
0.0,-1.49217,-3.38451
1.0,-1.07334,-3.74337
2.0,-0.670649,-3.0726
3.0,-0.801162,-1.55368
4.0,-1.38937,-1.34994
5.0,-1.71379,-1.03668
6.0,-1.43187,-2.09125
7.0,-0.952493,-1.73104
8.0,-0.444804,-1.3235
9.0,-0.73351,-2.55321
10.0,-0.779083,-2.17487
11.0,-0.496319,-1.46438
12.0,0.228892,2.78396
13.0,0.307871,2.47173
14.0,-0.306677,-2.03552
15.0,-0.707055,-1.79731
16.0,-1.41002,-1.4758
17.0,-0.765416,-2.75403
18.0,0.369941,3.68927
19.0,0.399077,3.16595
20.0,-0.083322,-2.32163
21.0,0.0148866,1.47133
22.0,0.0453171,1.33988
23.0,1.24677,2.57477
24.0,2.29038,3.38822
25.0,2.6913,3.4307
26.0,2.78636,2.71023
27.0,2.47678,2.46711
28.0,4.25125,2.64832
29.0,10.5902,10.5844
30.0,17.1231,23.4154
31.0,24.148,40.7644
32.0,31.8319,58.6171
33.0,42.9616,73.8473
34.0,56.1139,87.1779
35.0,67.5135,93.4102
36.0,77.3917,101.322
37.0,83.4262,107.544
38.0,86.5555,110.946
39.0,87.6488,111.255
40.0,86.154,107.599
41.0,83.3103,100.843
42.0,84.9422,97.1707
43.0,89.3149,90.7614
44.0,95.6079,82.3048
45.0,101.001,80.997
46.0,105.055,83.261
47.0,108.178,82.9539
48.0,118.215,72.1784
49.0,128.04,50.7736
50.0,138.098,32.5456
51.0,143.151,21.2107
52.0,148.404,20.1988
53.0,151.132,21.3545
54.0,152.239,21.9621
55.0,149.758,23.6481
56.0,148.26,25.9621
57.0,145.605,26.1379
58.0,145.214,26.4327
59.0,143.673,27.1561
60.0,139.499,24.6715
61.0,135.446,20.5998
62.0,132.383,19.1685
63.0,127.747,18.4889
64.0,126.319,19.7464
65.0,124.087,17.4837
66.0,122.011,15.5856
67.0,119.335,12.9321
68.0,116.043,13.2506
69.0,113.339,12.7213
70.0,111.413,13.7465
71.0,111.54,12.5779
72.0,108.273,10.679
73.0,107.069,11.3067
74.0,105.148,10.4521
75.0,103.592,9.43781
76.0,103.483,9.65684
77.0,101.896,10.0729
78.0,101.71,10.4587
79.0,100.179,9.92723
80.0,98.75,9.49135
81.0,98.1341,9.25218
82.0,97.6191,9.74821
83.0,97.2808,10.2091
84.0,96.0222,11.0663
85.0,95.3024,10.3694
86.0,93.8297,8.59413
87.0,94.0796,7.50578
88.0,93.6045,8.25023
89.0,93.5236,8.99352
90.0,91.4546,7.96335
91.0,90.2629,7.83072
92.0,90.4318,6.98486
93.0,89.9745,6.98567
94.0,89.6973,7.43038
95.0,87.8614,7.79293
96.0,86.9424,8.28183
97.0,85.4974,7.85658
98.0,86.2113,7.17224
99.0,85.8869,7.55709
100.0,84.6131,8.21815
101.0,83.2645,10.0475
102.0,82.9507,9.81487
103.0,82.8099,9.59034
104.0,82.2215,8.19109
105.0,82.5615,8.00926
106.0,82.4518,9.17128
107.0,81.6806,9.69954
108.0,80.3411,9.00679
109.0,80.2733,7.77791
110.0,79.3789,6.78903
111.0,80.3116,6.4527
112.0,80.1258,8.48546
113.0,78.2413,8.87
114.0,77.7818,8.40708
115.0,77.0537,6.86053
116.0,76.8685,5.70556
117.0,77.4536,5.88714
118.0,76.2997,7.35921
119.0,75.7807,7.18366
120.0,74.9136,6.49874
121.0,74.0753,5.286
122.0,75.0679,3.41341
123.0,75.2745,4.19441
124.0,74.3986,5.65977
125.0,73.5257,6.87047
126.0,72.945,5.19361
127.0,72.6596,3.65004
128.0,73.0657,2.6467
129.0,73.3896,3.63097
130.0,72.5819,5.60346
131.0,71.8897,7.04432
132.0,71.7012,6.51074
133.0,71.4422,4.06533
134.0,71.9053,3.20579
135.0,71.501,3.39657
136.0,70.4185,4.69131
137.0,70.1722,5.23149
138.0,68.8621,5.05955
139.0,69.4468,3.29355
140.0,70.8379,2.18434
141.0,70.3849,3.84495
142.0,69.2429,4.81154
143.0,68.654,5.9028
144.0,68.2082,5.2093
145.0,68.727,3.73645
146.0,69.7124,4.04833
147.0,69.0945,4.72122
148.0,67.7372,6.35216
149.0,67.7855,5.66423
150.0,67.4864,6.35889
151.0,67.8938,4.8949
152.0,69.1722,5.23149
153.0,67.9962,5.17875
154.0,66.8658,5.36009
155.0,65.819,6.15751
156.0,65.613,5.46384
157.0,66.3665,4.74723
158.0,66.7879,4.78603
159.0,66.3622,5.02081
160.0,65.4082,5.0355
161.0,64.6617,4.03662
162.0,64.4133,3.33681
163.0,65.342,3.64054
164.0,65.9317,4.7098
165.0,65.5465,5.46927
166.0,64.2306,5.11661
167.0,63.4141,5.25085
168.0,63.9965,4.28453
169.0,64.9433,4.91395
170.0,64.9323,4.33977
171.0,64.4632,4.05453
172.0,63.635,3.9009
173.0,63.1922,3.39577
174.0,63.7039,3.05511
175.0,64.009,3.46005
176.0,63.606,3.90932
177.0,62.5529,3.92067
178.0,61.54,3.35332
179.0,61.8371,3.56317
180.0,61.9857,4.54146
181.0,63.1186,4.68662
182.0,63.5067,4.86547
183.0,62.917,4.62592
184.0,62.4263,4.30761
185.0,62.4767,3.60845
186.0,63.6102,4.09908
187.0,63.2747,4.38284
188.0,63.096,4.35418
189.0,62.7495,4.63722
190.0,61.8781,3.85346
191.0,61.8963,4.32033
192.0,63.1441,5.48984
193.0,63.1561,6.29834
194.0,63.1576,5.73899
195.0,62.4824,3.95497
196.0,62.0562,3.92464
197.0,61.7001,5.95738
198.0,62.3882,6.74769
199.0,62.0226,6.26153
200.0,61.6211,4.74682
201.0,60.6853,3.42561
202.0,60.0174,3.78808
203.0,59.7544,5.489
204.0,60.4886,7.33287
205.0,60.7048,6.64021
206.0,59.9842,6.07308
207.0,59.3839,5.56805
208.0,58.9632,6.07207
209.0,59.0284,7.26717
210.0,59.7899,9.06202
211.0,60.0232,8.13399
212.0,59.3332,6.07161
213.0,58.9865,5.4647
214.0,58.6223,6.31838
215.0,58.9375,7.33894
216.0,59.355,8.49826
217.0,58.7525,7.87962
218.0,58.5798,7.04563
219.0,57.9964,6.7981
220.0,57.4046,8.23862
221.0,58.5594,10.6159
222.0,59.5398,10.1368
223.0,58.9633,9.64116
224.0,57.5644,8.23003
225.0,57.2441,7.2102
226.0,56.9651,9.43318
227.0,57.7689,10.9546
228.0,57.7054,10.4963
229.0,57.8406,8.81667
230.0,57.712,7.2826
231.0,57.1473,8.01643
232.0,57.2707,9.95395
233.0,58.7967,11.3625
234.0,58.7182,11.2256
235.0,58.1606,10.4965
236.0,57.54,9.11469
237.0,56.6362,9.43578
238.0,57.2896,11.2249
239.0,58.2345,12.278
240.0,58.0948,11.0103
241.0,57.7834,8.65234
242.0,57.2531,7.87476
243.0,57.5,8.35702
244.0,57.7244,9.56552
245.0,58.2048,11.3144
246.0,57.6784,10.5442
247.0,57.0768,8.7432
248.0,56.7974,8.05177
249.0,56.7559,8.22995
250.0,57.7021,9.58723
251.0,58.0491,9.60654
252.0,57.7317,8.72528
253.0,57.1623,6.93942
254.0,56.8465,6.74628
255.0,56.1998,8.70694
256.0,56.8139,10.1521
257.0,56.6967,9.98457
258.0,57.1071,8.49501
259.0,56.8502,7.52857
260.0,55.9868,7.03477
261.0,55.9643,7.92453
262.0,57.2068,10.0471
263.0,57.9429,9.86249
264.0,57.5087,8.10158
265.0,57.2396,6.51438
266.0,56.252,7.20269
267.0,55.9619,8.64049
268.0,56.8165,10.3775
269.0,56.7737,10.0055
270.0,56.3778,8.22912
271.0,56.2442,7.5992
272.0,55.5166,8.25848
273.0,55.6897,9.23535
274.0,57.0963,11.2084
275.0,56.3859,11.05
276.0,56.1228,8.74851
277.0,55.2777,6.86992
278.0,55.0564,7.97871
279.0,55.6513,10.3414
280.0,56.3808,10.1306
281.0,56.6308,10.0612
282.0,55.5806,7.15281
283.0,55.3363,6.26128
284.0,54.8651,6.85177
285.0,55.3295,8.65411
286.0,55.7923,9.5817
287.0,55.3985,8.31446
288.0,55.3946,7.2902
289.0,55.1577,6.02149
290.0,54.6474,7.3924
291.0,55.7899,9.44495
292.0,55.6621,8.71662
293.0,55.1552,8.35305
294.0,55.4863,6.39129
295.0,54.3824,6.75098
296.0,54.4658,8.6022
297.0,56.1339,9.59156
298.0,56.5369,10.3321
299.0,56.6954,8.70541
300.0,56.5316,7.4689
301.0,55.7704,8.04358
302.0,56.4547,8.9262
303.0,57.0216,9.97947
304.0,56.8443,9.33706
305.0,56.1232,7.42026
306.0,55.4696,5.83285
307.0,55.1154,5.70876
308.0,55.8633,7.97953
309.0,56.2341,9.17147
310.0,56.6145,8.82865
311.0,55.732,6.82435
312.0,55.5461,6.28321
313.0,55.5316,7.57868
314.0,56.17,9.56986
315.0,56.8933,10.5081
316.0,56.1571,9.47204
317.0,55.4798,7.71789
318.0,55.1331,6.87857
319.0,55.3626,7.64346
320.0,56.5503,8.29295
321.0,56.6147,8.77385
322.0,56.1755,7.45797
323.0,55.7514,6.57779
324.0,55.0905,6.84879
325.0,55.1939,7.57119
326.0,55.752,8.8568
327.0,55.7689,8.69579
328.0,55.5935,7.15279
329.0,54.8755,6.02619
330.0,54.8515,5.72641
331.0,55.2241,7.09133
332.0,55.5659,8.47866
333.0,55.5273,7.79433
334.0,55.0708,6.87998
335.0,54.7015,5.7467
336.0,54.4535,6.85228
337.0,54.6846,8.69631
338.0,55.504,8.95484
339.0,55.7166,8.4919
340.0,55.5234,6.67897
341.0,54.9606,5.39579
342.0,54.5376,6.15913
343.0,55.311,7.69004
344.0,55.8566,8.12724
345.0,55.8237,7.40394
346.0,55.5026,6.19323
347.0,55.2038,4.98292
348.0,55.419,6.12914
349.0,56.2752,6.64721
350.0,56.9045,7.46005
351.0,56.7343,7.00888
352.0,56.2507,6.12973
353.0,55.9468,5.77295
354.0,56.5679,5.14099
355.0,57.3115,6.28548
356.0,57.0977,6.47779
357.0,57.1209,6.41427
358.0,56.7491,4.89797
359.0,57.0847,4.35555
360.0,56.5274,6.05367
361.0,57.5595,7.36428
362.0,57.6678,7.88526
363.0,57.1165,6.5024
364.0,57.3303,5.06962
365.0,56.4104,5.21371
366.0,57.4747,6.00614
367.0,58.8626,6.94476
368.0,58.976,6.85713
369.0,58.4714,6.44569
370.0,57.6343,5.38146
371.0,57.8619,5.06637
372.0,58.2308,7.06379
373.0,58.8597,8.04726
374.0,58.6189,7.71903
375.0,58.6489,6.97086
376.0,58.3917,5.20157
377.0,58.5998,5.90284
378.0,60.1754,7.38149
379.0,60.6742,8.4022
380.0,60.7238,7.95617
381.0,60.2883,7.20549
382.0,59.5409,6.26753
383.0,59.2121,6.84197
384.0,59.9554,8.96872
385.0,60.6402,9.84829
386.0,60.902,9.44682
387.0,61.2406,7.69893
388.0,61.344,6.94291
389.0,61.7957,7.31751
390.0,63.1661,8.59975
391.0,63.667,8.71487
392.0,62.8259,7.67031
393.0,62.9069,6.79068
394.0,62.3277,6.61663
395.0,63.0283,8.46006
396.0,64.4165,8.94137
397.0,64.422,9.40054
398.0,64.1774,10.1925
399.0,64.4608,9.00609
400.0,63.7351,8.80635
401.0,64.7126,10.2387
402.0,65.933,11.0581
403.0,66.1462,11.4493
404.0,65.3408,9.88349
405.0,64.79,8.41482
406.0,65.0311,8.76161
407.0,66.401,9.86242
408.0,66.8115,10.8289
409.0,67.144,11.2014
410.0,67.0361,10.3689
411.0,66.8681,8.83295
412.0,67.4652,9.31175
413.0,68.5169,10.4617
414.0,69.5666,11.8425
415.0,69.0505,12.6976
416.0,68.9372,11.8038
417.0,68.7494,11.0194
418.0,69.4243,12.1605
419.0,70.5241,13.6892
420.0,71.2175,14.4657
421.0,71.404,13.571
422.0,72.024,12.6446
423.0,72.3292,11.213
424.0,72.4993,11.5468
425.0,73.2151,12.7173
426.0,74.0097,13.543
427.0,74.4047,14.6827
428.0,73.4385,12.2886
429.0,73.5346,13.1177
430.0,73.7854,14.1792
431.0,74.7715,15.8265
432.0,75.4887,16.6546
433.0,74.8191,15.762
434.0,74.3338,15.1135
435.0,74.4644,14.9286
436.0,75.7171,16.1544
437.0,76.5774,18.1085
438.0,76.8288,18.9138
439.0,76.784,17.3699
440.0,76.3586,15.7921
441.0,75.9451,15.679
442.0,77.467,17.9284
443.0,78.7376,18.9471
444.0,78.5733,19.2612
445.0,78.1581,17.3951
446.0,78.5165,16.1745
447.0,78.3927,16.7982
448.0,79.0808,18.3634
449.0,79.7089,19.6729
450.0,80.1118,19.5804
451.0,80.119,18.4104
452.0,79.6651,18.065
453.0,79.9841,19.2099
454.0,81.4696,20.9915
455.0,81.6831,21.2267
456.0,81.6149,20.9343
457.0,81.0596,20.6474
458.0,80.4974,20.0709
459.0,81.2559,21.4237
460.0,83.1733,23.3652
461.0,82.5321,23.7973
462.0,82.126,22.8553
463.0,82.5756,21.6476
464.0,81.7251,22.6991
465.0,82.6792,22.5316
466.0,84.1738,24.9919
467.0,84.6664,25.7289
468.0,83.8355,24.6504
469.0,83.7592,23.5254
470.0,83.6674,24.2369
471.0,83.7153,25.9647
472.0,85.3465,28.087
473.0,84.2059,28.0009
474.0,83.8726,26.9307
475.0,84.4238,25.8347
476.0,84.9316,26.3051
477.0,85.503,27.2234
478.0,86.7193,28.8138
479.0,87.7118,28.7665
480.0,87.2497,26.9891
481.0,87.1603,27.9828
482.0,86.919,29.5267
483.0,89.4135,32.2724
484.0,89.1402,33.4127
485.0,89.0274,33.7974
486.0,89.3988,33.9332
487.0,89.1765,34.1748
488.0,89.5482,34.5897
489.0,90.5196,35.5076
490.0,91.1241,37.3252
491.0,91.3196,37.5528
492.0,91.7729,36.9076
493.0,92.5693,38.6015
494.0,92.7045,39.0255
495.0,93.6963,40.5717
496.0,93.9212,41.947
497.0,93.2436,41.9676
498.0,93.259,40.9622
499.0,93.9908,42.3703
500.0,96.0845,43.977
501.0,96.9259,43.8199
502.0,97.3974,45.6265
503.0,97.2382,45.0824
504.0,97.1853,43.1335
505.0,98.3944,44.2224
506.0,99.8528,46.4115
507.0,101.151,47.7119
508.0,100.86,47.6404
509.0,100.736,47.306
510.0,100.412,47.2715
511.0,100.568,46.6185
512.0,100.982,47.6116
513.0,101.18,48.4454
514.0,101.774,50.3022
515.0,102.599,49.355
516.0,103.156,49.991
517.0,102.655,50.9785
518.0,104.71,54.5001
519.0,104.872,54.8102
520.0,103.535,53.745
521.0,102.591,51.2684
522.0,103.183,51.8125
523.0,103.859,52.3662
524.0,104.371,52.8698
525.0,104.405,53.6771
526.0,104.357,53.1669
527.0,104.073,51.1744
528.0,104.118,52.361
529.0,103.676,53.1976
530.0,105.06,53.7325
531.0,104.208,52.7951
532.0,103.122,51.5622
533.0,103.048,49.9508
534.0,103.581,50.8082
535.0,103.849,52.1733
536.0,104.396,53.4882
537.0,104.118,53.3692
538.0,104.891,52.3399
539.0,105.009,50.6189
540.0,104.767,51.5942
541.0,105.859,52.6034
542.0,106.174,53.4465
543.0,107.341,53.9462
544.0,105.779,51.505
545.0,105.742,50.8065
546.0,105.123,52.5132
547.0,105.995,54.4177
548.0,106.689,54.6857
549.0,106.559,53.8983
550.0,105.354,51.168
551.0,103.322,49.6196
552.0,104.168,51.7721
553.0,104.72,52.6695
554.0,104.188,52.8645
555.0,103.18,51.5808
556.0,103.492,49.095
557.0,101.127,48.2295
558.0,100.25,48.614
559.0,100.72,50.4499
560.0,100.53,50.1185
561.0,100.034,48.4872
562.0,99.2848,46.2005
563.0,98.4887,47.8701
564.0,98.2133,49.6553
565.0,97.1579,49.4183
566.0,96.9164,48.9739
567.0,95.962,47.2334
568.0,95.4836,45.5172
569.0,94.2179,45.7444
570.0,93.3989,46.8494
571.0,93.3919,47.3079
572.0,93.1357,46.6732
573.0,91.5273,43.8317
574.0,91.3483,42.7345
575.0,89.8767,43.1367
576.0,91.2168,45.1582
577.0,90.1848,44.8724
578.0,88.7218,42.8005
579.0,87.5417,40.5477
580.0,85.6139,39.4776
581.0,84.5161,40.8977
582.0,83.5838,41.6679
583.0,83.6971,41.549
584.0,82.6015,39.517
585.0,80.6464,36.907
586.0,79.8933,36.9101
587.0,79.0266,38.528
588.0,79.335,39.9508
589.0,79.1513,39.3511
590.0,76.7804,36.6404
591.0,76.233,34.0732
592.0,75.8537,34.1247
593.0,75.4935,35.1154
594.0,76.1395,36.3592
595.0,75.1004,35.458
596.0,73.9725,33.183
597.0,73.8134,31.7332
598.0,73.1641,32.5372
599.0,73.2935,34.6459
600.0,73.6544,35.4769
601.0,72.3987,33.4423
602.0,72.3579,31.8839
603.0,72.1113,30.826
604.0,70.3554,32.0903
605.0,71.1995,34.7156
606.0,71.5187,35.071
607.0,71.093,33.7434
608.0,70.4473,32.3032
609.0,69.2945,31.7867
610.0,69.0407,33.3856
611.0,69.2184,34.6419
612.0,69.5806,34.9146
613.0,69.4711,33.5868
614.0,67.983,30.9878
615.0,67.128,31.6075
616.0,67.5,34.2259
617.0,67.7201,35.7551
618.0,67.7363,34.8597
619.0,66.6328,32.9741
620.0,66.047,31.7407
621.0,65.3457,32.6046
622.0,65.5029,35.2689
623.0,65.915,35.9356
624.0,65.3849,34.3744
625.0,64.856,31.7436
626.0,63.6141,29.7943
627.0,62.7535,31.2589
628.0,63.5563,33.3396
629.0,63.7847,33.4762
630.0,63.3508,32.0212
631.0,62.0716,29.9019
632.0,61.8512,29.1957
633.0,60.8885,30.3291
634.0,60.7967,32.1849
635.0,61.2888,32.3836
636.0,60.7632,31.4024
637.0,60.3365,29.3386
638.0,58.8082,28.6086
639.0,58.0172,30.3722
640.0,58.2073,32.0077
641.0,58.0249,31.6232
642.0,57.9858,30.3273
643.0,58.0664,28.272
644.0,57.6609,28.3202
645.0,58.13,30.6143
646.0,59.1333,32.4995
647.0,59.8938,32.2877
648.0,59.1721,29.8
649.0,58.1076,28.0693
650.0,57.7328,29.1116
651.0,56.7922,30.8849
652.0,56.5,31.4771
653.0,55.393,30.3068
654.0,54.8958,28.5938
655.0,54.3292,26.2027
656.0,53.5574,26.579
657.0,53.2651,28.0846
658.0,54.1867,29.2608
659.0,53.5609,27.7042
660.0,52.7122,25.0047
661.0,52.2332,23.4084
662.0,51.3535,24.1168
663.0,51.4063,26.2589
664.0,51.6661,26.7431
665.0,50.895,25.1264
666.0,50.0824,23.3601
667.0,49.5747,22.3021
668.0,49.1766,23.9761
669.0,49.8848,25.843
670.0,49.6106,25.5502
671.0,48.7465,23.8294
672.0,47.9744,21.9199
673.0,47.1747,21.2245
674.0,47.4207,23.3397
675.0,47.878,25.1198
676.0,48.1933,24.4455
677.0,47.3246,22.5044
678.0,46.7684,20.4113
679.0,45.9254,20.2502
680.0,45.5491,21.7663
681.0,45.6141,23.3091
682.0,44.9964,22.5438
683.0,43.937,20.8945
684.0,42.6186,18.4489
685.0,41.906,19.0118
686.0,41.3663,20.9431
687.0,41.4778,21.8436
688.0,40.7279,20.666
689.0,40.435,18.9928
690.0,39.541,16.8571
691.0,39.2442,17.9392
692.0,39.2297,19.5884
693.0,39.8888,20.7439
694.0,39.3268,19.4875
695.0,38.4532,17.2535
696.0,37.6821,15.4349
697.0,36.5984,16.699
698.0,36.8621,18.5698
699.0,36.9376,19.3898
700.0,36.4629,18.4062
701.0,35.4122,16.5981
702.0,34.8457,15.7553
703.0,34.0269,16.7941
704.0,34.849,19.2088
705.0,35.3548,19.23
706.0,35.2984,18.092
707.0,34.7802,15.8736
708.0,34.3424,15.7398
709.0,34.2935,17.6956
710.0,34.9778,19.4722
711.0,35.5952,19.7986
712.0,35.159,18.2428
713.0,34.2015,16.3575
714.0,32.8833,15.9964
715.0,33.1583,17.8971
716.0,33.2709,19.0808
717.0,33.3664,18.1571
718.0,33.5477,16.7582
719.0,32.5459,14.2428
720.0,32.2593,14.9109
721.0,32.2192,16.7612
722.0,33.1138,18.1381
723.0,33.1,18.0478
724.0,32.7881,16.4011
725.0,32.0454,14.6863
726.0,31.416,16.0994
727.0,31.5014,17.9801
728.0,32.2426,18.8657
729.0,31.4174,17.5787
730.0,30.8865,15.5496
731.0,30.1781,14.7123
732.0,29.9917,16.3271
733.0,30.6005,18.2973
734.0,31.4527,19.1386
735.0,31.2708,18.0624
736.0,31.347,16.2714
737.0,31.0234,15.6535
738.0,30.8677,16.6753
739.0,31.7269,18.3741
740.0,31.7518,18.3323
741.0,31.4676,17.1703
742.0,31.142,15.0632
743.0,30.9637,14.8831
744.0,30.6418,16.5035
745.0,31.1532,17.9477
746.0,31.2804,17.8131
747.0,30.9093,15.7163
748.0,30.7315,13.5487
749.0,30.8805,13.7438
750.0,31.2983,15.7214
751.0,31.9576,17.0688
752.0,31.5701,16.9214
753.0,31.4128,15.5649
754.0,30.814,14.2642
755.0,30.4086,14.789
756.0,30.7672,16.5554
757.0,31.7514,17.0839
758.0,31.6687,16.12
759.0,31.1115,14.6127
760.0,30.3372,13.6404
761.0,29.5663,14.8664
762.0,30.0384,16.7347
763.0,30.4934,17.4704
764.0,30.3473,16.6105
765.0,29.56,14.1686
766.0,29.0942,13.2014
767.0,28.3204,14.9919
768.0,28.9828,17.045
769.0,29.0878,17.2205
770.0,28.8871,16.0395
771.0,28.3182,13.823
772.0,28.1536,13.5198
773.0,28.2021,15.2605
774.0,29.0643,17.0639
775.0,29.2751,17.0438
776.0,29.1639,15.8273
777.0,28.1095,13.8707
778.0,27.5624,14.067
779.0,27.9077,15.8916
780.0,28.3795,17.08
781.0,28.5409,16.5289
782.0,28.1533,14.9197
783.0,27.8246,13.0049
784.0,27.3826,13.6124
785.0,27.9176,15.711
786.0,28.6016,16.8438
787.0,28.2758,16.0838
788.0,27.84,14.3632
789.0,27.5424,13.28
790.0,27.2447,14.4789
791.0,27.8635,16.5569
792.0,28.3649,18.0802
793.0,28.2732,17.534
794.0,27.8112,15.5279
795.0,27.2744,14.2013
796.0,26.8301,15.4057
797.0,27.063,17.0741
798.0,27.6501,17.8114
799.0,27.732,17.054
800.0,27.753,15.7955
801.0,27.6854,15.4503
802.0,27.6907,17.097
803.0,28.6998,19.2485
804.0,28.6681,18.7928
805.0,36.7849,1.82632
806.0,35.0659,1.82478
807.0,34.6639,2.75558
808.0,35.7466,3.52515
809.0,37.2671,3.92887
810.0,36.9062,2.56567
811.0,35.8818,1.84068
812.0,34.9985,1.57196
813.0,34.9883,1.66464
814.0,35.3664,3.15658
815.0,36.9892,3.53097
816.0,37.2111,3.44534
817.0,32.2509,
818.0,30.808,
819.0,31.4318,
820.0,33.4218,
821.0,35.2566,
822.0,34.289,
823.0,31.5832,
824.0,32.1876,
825.0,34.7345,
826.0,37.5644,
827.0,37.443,
828.0,35.4352,
829.0,34.2315,
830.0,33.7609,
831.0,35.0067,
832.0,38.196,
833.0,37.1736,
834.0,34.5247,
835.0,33.2516,
836.0,33.3927,
837.0,34.9041,
838.0,37.9769,
839.0,36.1502,
840.0,32.9644,
841.0,32.6564,
842.0,33.0477,
843.0,34.5351,
844.0,36.6245,
845.0,35.0824,
846.0,33.4064,
847.0,31.8946,
848.0,32.7545,
849.0,34.5255,
850.0,35.3994,
851.0,33.368,
852.0,31.8298,
853.0,30.9386,
854.0,32.1582,
855.0,34.5775,
856.0,35.1624,
857.0,33.7082,
858.0,31.7088,
859.0,30.5661,
860.0,32.3671,
861.0,34.0334,