File: Exp-Data_Prepared-Final/FTT-White/2020/Purpleheart_50kW_hor_Average.csv
Time (s),HRRPUA (kW/m2),Uc HRRPUA (kW/m2)
0.0,1.23701,1.32382
1.0,2.54588,0.564855
2.0,0.535587,1.26275
3.0,-0.416889,-1.21833
4.0,1.15058,2.47709
5.0,0.0605829,1.11366
6.0,0.331728,1.32749
7.0,1.40829,1.151
8.0,-1.34189,-0.967353
9.0,-2.07314,-1.05193
10.0,0.0973798,2.23075
11.0,-0.666614,-0.924929
12.0,0.00871682,1.55742
13.0,0.630307,1.53076
14.0,-1.38788,-0.758945
15.0,-1.47011,-0.676336
16.0,0.941384,1.82737
17.0,0.878303,2.06808
18.0,1.05443,1.78741
19.0,0.73293,2.43263
20.0,-0.530532,-1.99112
21.0,1.62673,2.91262
22.0,2.03444,3.74686
23.0,1.37858,2.61207
24.0,3.18632,2.29587
25.0,1.38159,2.84082
26.0,-0.37577,-1.52715
27.0,0.953526,2.73843
28.0,0.972044,2.74879
29.0,1.03423,1.69937
30.0,2.08021,0.456809
31.0,0.361087,2.36536
32.0,-0.911594,-1.47997
33.0,0.0923107,1.67388
34.0,-0.0888333,-1.44497
35.0,-0.0312937,-1.61982
36.0,1.2725,0.564516
37.0,-0.613834,-0.960561
38.0,-1.216,-1.8077
39.0,-0.201729,-1.78159
40.0,0.175406,0.253509
41.0,0.21347,1.50501
42.0,0.943126,0.734579
43.0,0.122739,2.57847
44.0,-0.242181,-1.9101
45.0,0.392668,1.96175
46.0,-0.0915549,-1.31016
47.0,0.789348,0.947356
48.0,0.264942,1.05875
49.0,-1.44779,-0.493064
50.0,0.188543,1.81694
51.0,0.0467412,1.19685
52.0,-0.0898788,-3.35432
53.0,5.13321,4.97693
54.0,11.3417,11.0798
55.0,26.6949,21.7054
56.0,41.3791,32.6698
57.0,55.9722,47.8934
58.0,72.5252,61.1519
59.0,79.7698,68.4457
60.0,83.8723,78.1956
61.0,95.7669,83.7333
62.0,103.451,84.7543
63.0,118.668,71.422
64.0,132.36,63.1297
65.0,147.726,47.6921
66.0,158.239,28.4217
67.0,163.814,19.1429
68.0,171.527,10.8342
69.0,175.931,6.85427
70.0,179.642,6.20809
71.0,181.951,9.3539
72.0,184.126,8.09498
73.0,183.968,10.8402
74.0,183.025,12.9701
75.0,181.788,14.9534
76.0,183.324,14.7833
77.0,181.083,18.9664
78.0,176.272,19.133
79.0,176.218,18.233
80.0,175.313,17.23
81.0,172.783,15.0079
82.0,171.838,14.4733
83.0,166.014,14.0138
84.0,161.832,13.728
85.0,158.939,11.7308
86.0,155.53,13.4547
87.0,154.325,13.9676
88.0,153.335,10.7185
89.0,151.1,10.8474
90.0,148.597,8.33541
91.0,149.411,8.50704
92.0,146.256,6.88112
93.0,144.35,5.96244
94.0,145.401,5.45888
95.0,142.445,4.10668
96.0,140.984,2.60995
97.0,139.527,4.7289
98.0,138.468,4.03656
99.0,139.893,5.24907
100.0,136.841,2.59963
101.0,134.986,4.11031
102.0,132.843,4.25441
103.0,134.032,4.4732
104.0,131.427,3.44942
105.0,128.386,0.242079
106.0,129.284,1.9952
107.0,126.181,3.06596
108.0,122.581,3.44192
109.0,124.095,3.59854
110.0,121.061,4.1823
111.0,120.188,3.80517
112.0,120.622,2.27695
113.0,117.981,1.71634
114.0,118.287,0.592564
115.0,115.28,1.72883
116.0,115.396,1.60714
117.0,115.198,1.17317
118.0,113.752,0.643114
119.0,111.725,1.08383
120.0,112.456,0.943753
121.0,112.573,2.08295
122.0,110.879,2.71648
123.0,109.306,3.35107
124.0,109.131,4.7037
125.0,105.473,2.99428
126.0,106.248,3.15206
127.0,109.623,2.15583
128.0,107.267,3.72564
129.0,107.124,3.48015
130.0,107.145,0.891485
131.0,106.307,0.48624
132.0,105.915,2.30255
133.0,106.124,1.73691
134.0,105.299,2.44285
135.0,102.91,3.99201
136.0,103.557,4.50704
137.0,103.725,4.21087
138.0,101.641,4.50717
139.0,103.622,3.71436
140.0,103.149,2.33901
141.0,101.277,1.73751
142.0,99.6385,0.937263
143.0,97.95,1.281
144.0,98.0317,4.64446
145.0,98.4638,3.98521
146.0,98.578,3.08358
147.0,97.6619,3.96763
148.0,96.7095,4.27987
149.0,95.72,2.99457
150.0,95.7522,2.36171
151.0,95.9624,3.58056
152.0,94.9552,4.48024
153.0,95.1668,3.75637
154.0,95.9978,2.72843
155.0,94.103,3.39163
156.0,93.6407,4.48249
157.0,96.3079,3.14369
158.0,95.1747,1.91267
159.0,93.4065,3.36652
160.0,93.8324,4.97263
161.0,92.8763,2.89534
162.0,93.001,3.46232
163.0,93.0309,4.19835
164.0,91.77,3.67232
165.0,89.951,5.408
166.0,89.9406,4.61724
167.0,91.5179,2.34886
168.0,91.5595,3.63185
169.0,93.6103,4.04783
170.0,91.5818,1.86184
171.0,89.0361,1.10592
172.0,91.7124,2.89517
173.0,89.1674,1.61539
174.0,89.5055,3.32646
175.0,90.6547,2.1025
176.0,89.0847,1.41048
177.0,88.8678,3.347
178.0,87.3873,2.71667
179.0,88.5125,1.26662
180.0,87.4372,2.99429
181.0,88.9778,2.03763
182.0,87.0455,2.63619
183.0,86.4485,5.51686
184.0,86.6334,2.89484
185.0,84.7059,2.40397
186.0,87.936,0.778201
187.0,87.1345,2.1929
188.0,84.6879,2.46911
189.0,86.9231,3.10299
190.0,86.1736,1.44097
191.0,87.4094,1.74449
192.0,89.328,1.63555
193.0,86.6469,1.37996
194.0,86.7575,2.50776
195.0,88.0166,4.5113
196.0,86.1526,3.1109
197.0,86.4523,2.4046
198.0,88.9939,4.41039
199.0,85.5188,3.14984
200.0,84.3154,3.58234
201.0,86.0538,6.059
202.0,85.4778,4.53127
203.0,85.2428,2.75304
204.0,87.8074,3.87392
205.0,85.314,3.03972
206.0,83.455,3.64114
207.0,84.8846,5.5784
208.0,83.8008,3.3548
209.0,85.4837,3.70538
210.0,86.1954,2.84462
211.0,84.3386,2.21724
212.0,83.947,3.08306
213.0,85.6461,4.10931
214.0,85.1539,2.07003
215.0,85.7684,2.24657
216.0,85.8499,1.92843
217.0,83.8183,1.40085
218.0,82.6285,1.17588
219.0,85.0544,4.24374
220.0,83.2025,2.52822
221.0,83.6721,1.27454
222.0,85.6358,1.54836
223.0,82.096,1.12347
224.0,81.7402,1.95921
225.0,82.6643,2.45158
226.0,82.0574,3.36182
227.0,83.4279,2.03298
228.0,81.9674,2.33443
229.0,81.3409,1.77511
230.0,81.4193,0.461745
231.0,82.3606,1.19445
232.0,82.9972,2.33147
233.0,83.5845,3.35235
234.0,83.7498,1.76331
235.0,80.7365,3.02122
236.0,81.8202,1.64969
237.0,83.0665,1.12846
238.0,80.3269,3.97673
239.0,81.1034,3.99938
240.0,81.3716,2.7203
241.0,79.7647,1.13494
242.0,80.7322,0.780808
243.0,79.7279,2.0479
244.0,79.8819,3.05904
245.0,80.9727,2.89797
246.0,78.9815,2.31504
247.0,79.2277,0.786365
248.0,79.4257,1.44753
249.0,78.9756,0.846881
250.0,79.0272,2.08804
251.0,78.3388,1.56017
252.0,78.5092,1.97157
253.0,77.1241,1.55127
254.0,77.5564,0.873226
255.0,78.7885,2.05932
256.0,78.7048,2.36621
257.0,79.2259,1.48106
258.0,78.4524,2.75127
259.0,77.3187,1.95331
260.0,78.3666,2.7544
261.0,78.8806,2.00687
262.0,80.1074,1.03864
263.0,78.8624,1.26822
264.0,77.5286,1.22568
265.0,76.2694,1.17613
266.0,75.7355,0.509006
267.0,76.0492,1.61642
268.0,75.7601,1.56447
269.0,76.4941,1.24843
270.0,74.4387,1.80342
271.0,73.994,2.37414
272.0,75.4819,1.44317
273.0,77.193,1.29961
274.0,77.1891,2.55068
275.0,76.1341,0.605918
276.0,74.9304,0.95571
277.0,75.5642,3.47399
278.0,74.7129,1.87372
279.0,75.6457,0.800017
280.0,76.3844,3.58193
281.0,74.3734,1.43149
282.0,74.0653,1.04816
283.0,73.6391,1.86745
284.0,74.284,2.21909
285.0,75.7923,2.77019
286.0,75.0406,1.99196
287.0,74.9589,1.01526
288.0,73.2224,2.34614
289.0,72.961,1.9148
290.0,74.4383,0.57641
291.0,72.7664,2.00176
292.0,72.8496,0.323177
293.0,73.2308,1.37417
294.0,72.2122,1.1093
295.0,72.3104,0.29254
296.0,73.3113,2.08582
297.0,72.696,3.75327
298.0,72.4696,1.72778
299.0,72.4574,0.827342
300.0,71.1211,2.11426
301.0,73.3562,1.97749
302.0,74.757,0.464549
303.0,72.5439,2.74613
304.0,73.2122,2.3586
305.0,72.0681,2.67791
306.0,70.7083,2.83814
307.0,73.9172,2.58995
308.0,74.026,3.85119
309.0,74.1574,3.5133
310.0,75.1349,1.87454
311.0,72.9115,2.52975
312.0,72.8879,2.05207
313.0,73.9951,2.2492
314.0,73.8129,2.58278
315.0,74.4103,1.65625
316.0,73.1124,2.06196
317.0,73.1477,0.446619
318.0,73.9575,1.07207
319.0,73.3371,3.19392
320.0,73.4073,4.01595
321.0,74.4925,3.19607
322.0,73.6423,3.39566
323.0,71.9528,4.14623
324.0,71.5369,3.15326
325.0,72.4919,3.75806
326.0,72.3883,3.61611
327.0,72.8922,2.08377
328.0,72.0218,4.33139
329.0,71.3385,2.24409
330.0,72.1447,3.38202
331.0,72.4321,5.05872
332.0,73.7012,1.57674
333.0,72.5899,0.733152
334.0,71.8926,2.7835
335.0,72.4892,1.40873
336.0,71.6578,2.05634
337.0,73.1789,3.35724
338.0,74.4149,1.63543
339.0,71.8294,3.34793
340.0,73.0839,3.06395
341.0,71.943,2.18085
342.0,70.4671,1.24788
343.0,71.6409,2.81139
344.0,71.6917,2.16492
345.0,70.4704,2.70229
346.0,70.8465,4.24494
347.0,72.1586,1.48443
348.0,73.9319,4.75097
349.0,72.9391,5.81609
350.0,73.4316,1.44652
351.0,72.8149,4.20183
352.0,71.4938,3.27371
353.0,73.3466,1.04513
354.0,74.4214,2.91921
355.0,74.3313,3.53859
356.0,73.1665,2.6236
357.0,71.975,2.67692
358.0,72.7632,2.01696
359.0,72.2867,0.93934
360.0,73.0816,3.54712
361.0,73.3624,3.39344
362.0,73.8841,1.53065
363.0,73.2912,3.00882
364.0,73.7165,3.33357
365.0,75.4151,1.21271
366.0,74.7482,3.71014
367.0,75.4065,5.00904
368.0,75.1993,2.43808
369.0,74.2219,2.94266
370.0,74.5537,5.32378
371.0,75.0608,1.96596
372.0,75.6371,2.30934
373.0,75.5974,4.25208
374.0,73.9391,1.40424
375.0,74.3529,1.48449
376.0,73.4239,2.99822
377.0,75.2938,1.35444
378.0,75.978,4.0492
379.0,74.6206,3.4713
380.0,74.3188,0.212562
381.0,73.6186,1.92122
382.0,73.8183,2.69606
383.0,76.2696,1.0159
384.0,75.3738,3.89971
385.0,75.725,2.586
386.0,75.7707,0.625913
387.0,75.2339,1.6694
388.0,76.0246,4.52932
389.0,75.4335,2.12941
390.0,77.0031,4.68321
391.0,78.1143,2.78717
392.0,75.2504,1.67239
393.0,75.715,3.61173
394.0,75.5048,2.68897
395.0,76.6629,0.678557
396.0,75.7518,1.57247
397.0,75.505,3.59659
398.0,75.4544,3.03383
399.0,75.1901,4.17819
400.0,77.5739,4.67963
401.0,78.476,0.508142
402.0,77.5007,2.54554
403.0,78.9969,1.95762
404.0,78.2813,2.1128
405.0,79.0874,3.48415
406.0,79.4352,4.73739
407.0,80.0814,1.51674
408.0,79.9401,3.82895
409.0,78.8564,3.68738
410.0,77.714,2.32692
411.0,77.7826,4.12589
412.0,78.1552,3.23299
413.0,79.7768,2.11073
414.0,78.4774,3.33188
415.0,78.236,3.08076
416.0,77.4784,1.85207
417.0,78.0628,2.74971
418.0,80.2961,2.86384
419.0,79.6018,1.44886
420.0,79.0569,0.64373
421.0,79.6741,3.7956
422.0,79.3902,2.66434
423.0,79.4694,3.62253
424.0,80.2141,3.03201
425.0,82.4075,1.3202
426.0,81.6461,3.08741
427.0,80.5281,4.90625
428.0,81.0903,5.69769
429.0,80.4865,4.12415
430.0,81.6786,3.26212
431.0,82.8742,2.69741
432.0,81.5146,3.45587
433.0,82.4932,6.46889
434.0,82.3298,3.27145
435.0,83.7336,1.96953
436.0,84.3336,1.38414
437.0,83.5286,0.845664
438.0,84.0739,1.81791
439.0,82.7509,3.69196
440.0,83.2093,3.75229
441.0,84.55,3.10893
442.0,84.5495,1.75158
443.0,85.2106,4.08627
444.0,85.4682,2.02388
445.0,85.6508,4.32665
446.0,84.9732,4.82846
447.0,85.4381,1.259
448.0,87.2195,3.62967
449.0,86.4244,3.36255
450.0,85.8734,3.65234
451.0,86.7796,5.63777
452.0,87.6383,2.25719
453.0,89.3844,2.72369
454.0,89.6421,4.94129
455.0,90.3749,3.05598
456.0,89.3774,3.51113
457.0,88.4307,6.73844
458.0,88.804,5.83047
459.0,90.0591,2.96204
460.0,91.6438,4.78797
461.0,91.0319,3.75539
462.0,90.1986,5.17565
463.0,90.4909,6.62022
464.0,89.4905,4.11514
465.0,90.6999,4.15052
466.0,91.5869,5.37447
467.0,90.4669,3.72383
468.0,93.0941,5.40827
469.0,91.806,4.12496
470.0,91.9886,2.35767
471.0,94.7199,2.98959
472.0,93.9294,3.9048
473.0,94.5497,3.07281
474.0,95.6197,5.42223
475.0,94.6472,5.52158
476.0,96.3315,4.42472
477.0,98.9191,3.87266
478.0,97.7767,2.39461
479.0,97.1164,2.09073
480.0,97.5584,4.75948
481.0,97.985,5.35302
482.0,97.7101,3.29354
483.0,100.676,3.83792
484.0,100.026,3.05239
485.0,97.7664,2.64093
486.0,99.3478,5.0547
487.0,99.1517,3.52534
488.0,100.228,3.73945
489.0,101.331,4.79036
490.0,100.701,6.57439
491.0,100.509,6.82591
492.0,101.862,6.4623
493.0,103.708,7.93082
494.0,102.795,5.25975
495.0,104.518,3.83413
496.0,107.052,4.5597
497.0,105.493,4.06782
498.0,106.834,4.47869
499.0,108.642,5.58092
500.0,108.212,2.82794
501.0,109.946,4.19288
502.0,109.668,5.03666
503.0,107.983,6.29697
504.0,110.256,7.19445
505.0,110.946,5.81151
506.0,113.652,4.80826
507.0,115.183,4.92061
508.0,115.351,8.76759
509.0,113.711,6.97599
510.0,113.552,4.46319
511.0,116.985,6.8228
512.0,115.992,8.43095
513.0,118.053,8.85301
514.0,116.2,9.78057
515.0,114.787,7.19948
516.0,117.969,6.72883
517.0,119.029,6.08767
518.0,120.201,5.63905
519.0,122.896,6.24894
520.0,123.04,6.26725
521.0,123.327,4.49448
522.0,127.713,2.89938
523.0,129.048,3.42352
524.0,127.678,5.69651
525.0,129.49,5.07462
526.0,130.192,7.81946
527.0,130.579,7.98746
528.0,135.439,8.49368
529.0,136.832,6.92282
530.0,134.601,8.27453
531.0,138.412,9.38149
532.0,137.49,8.72519
533.0,137.363,8.61357
534.0,141.496,7.26253
535.0,139.554,6.05726
536.0,143.958,4.92474
537.0,145.247,3.30963
538.0,144.432,4.55601
539.0,145.511,6.52538
540.0,148.763,6.21468
541.0,150.806,7.30996
542.0,151.927,5.27531
543.0,155.631,2.27652
544.0,154.532,1.48726
545.0,154.466,2.43986
546.0,158.338,7.34262
547.0,158.502,4.57297
548.0,159.226,5.85793
549.0,163.542,4.4573
550.0,163.351,3.24426
551.0,166.126,5.65036
552.0,167.596,3.36579
553.0,168.478,2.51878
554.0,172.411,7.36076
555.0,172.461,6.49457
556.0,174.739,6.4529
557.0,178.432,6.79504
558.0,178.683,5.2067
559.0,181.443,6.08738
560.0,184.816,8.209
561.0,187.012,9.81918
562.0,186.655,8.56166
563.0,187.629,10.5641
564.0,186.812,8.61999
565.0,189.095,6.85249
566.0,188.189,9.459
567.0,187.447,10.5231
568.0,188.651,10.7843
569.0,192.956,13.6852
570.0,192.556,7.9646
571.0,194.44,6.54353
572.0,197.098,9.89
573.0,195.436,10.6532
574.0,197.018,8.86808
575.0,200.148,6.6589
576.0,205.293,8.62851
577.0,205.754,8.80332
578.0,209.427,13.5351
579.0,212.846,16.3058
580.0,210.463,13.5236
581.0,211.462,15.9342
582.0,214.462,14.2141
583.0,212.06,13.7924
584.0,211.976,14.0772
585.0,211.526,12.2752
586.0,213.969,16.2437
587.0,213.447,13.7041
588.0,215.635,14.8032
589.0,218.188,17.2408
590.0,215.035,11.7022
591.0,215.732,10.8846
592.0,216.786,10.1067
593.0,216.011,10.5299
594.0,220.032,13.0315
595.0,219.411,11.6056
596.0,220.563,13.2239
597.0,219.519,11.4534
598.0,221.261,11.7908
599.0,219.874,9.05658
600.0,220.477,7.00132
601.0,225.546,11.4179
602.0,228.296,15.1049
603.0,225.636,13.6157
604.0,226.672,14.8015
605.0,229.399,12.364
606.0,231.889,12.7645
607.0,229.729,10.4052
608.0,227.331,8.64827
609.0,229.367,10.8699
610.0,229.799,9.89353
611.0,233.023,11.5018
612.0,232.617,14.2058
613.0,229.56,15.4865
614.0,229.855,14.565
615.0,228.154,13.279
616.0,231.157,13.3335
617.0,232.131,12.3587
618.0,229.809,11.7326
619.0,231.769,16.5879
620.0,228.677,18.6663
621.0,231.296,19.3084
622.0,229.846,13.8501
623.0,231.931,14.7789
624.0,232.457,19.144
625.0,229.746,20.9716
626.0,231.309,22.039
627.0,235.766,25.2002
628.0,233.765,18.7629
629.0,236.323,17.5817
630.0,230.309,17.4005
631.0,231.539,20.0491
632.0,229.68,17.1912
633.0,230.247,18.0981
634.0,233.795,17.5037
635.0,232.823,16.3634
636.0,231.621,15.9577
637.0,230.02,18.2957
638.0,229.794,22.3747
639.0,229.86,21.0449
640.0,227.387,16.5453
641.0,230.315,18.9836
642.0,231.549,21.6336
643.0,228.379,20.2087
644.0,227.117,19.7818
645.0,227.407,20.2767
646.0,228.162,19.744
647.0,227.69,17.7582
648.0,224.927,17.109
649.0,223.47,22.1607
650.0,220.285,19.0556
651.0,223.457,19.8333
652.0,221.218,15.6586
653.0,218.872,16.8409
654.0,216.341,19.4268
655.0,211.022,15.2292
656.0,210.754,17.5292
657.0,212.691,22.1427
658.0,208.964,20.0914
659.0,205.895,18.8369
660.0,205.262,19.3497
661.0,202.271,19.6097
662.0,201.84,21.0153
663.0,200.114,16.0546
664.0,198.645,15.6366
665.0,198.726,16.1733
666.0,194.913,15.215
667.0,192.36,15.5011
668.0,191.602,15.0901
669.0,191.534,16.7754
670.0,189.319,15.5736
671.0,186.413,14.9432
672.0,185.918,16.3974
673.0,182.684,14.3539
674.0,183.512,12.8899
675.0,175.562,12.6492
676.0,175.699,12.5272
677.0,175.72,9.31953
678.0,172.835,9.89093
679.0,167.715,9.11707
680.0,167.919,8.26419
681.0,165.587,7.05619
682.0,162.933,10.2995
683.0,160.007,10.7346
684.0,158.729,11.6771
685.0,155.152,13.8918
686.0,154.958,15.9545
687.0,154.036,15.9015
688.0,150.253,16.3481
689.0,148.117,15.661
690.0,147.291,15.0586
691.0,144.201,16.924
692.0,144.133,16.7853
693.0,140.486,14.9771
694.0,135.494,14.8525
695.0,135.082,14.727
696.0,133.38,17.7675
697.0,131.25,17.1441
698.0,129.137,15.5172
699.0,129.358,17.2898
700.0,126.072,13.9634
701.0,124.208,14.6189
702.0,123.966,14.347
703.0,119.35,15.919
704.0,120.709,15.0569
705.0,119.243,16.2488
706.0,115.171,17.1444
707.0,114.182,16.78
708.0,110.822,15.762
709.0,109.692,16.5288
710.0,111.348,16.9655
711.0,107.644,16.9534
712.0,106.652,15.9448
713.0,105.14,15.3256
714.0,103.265,16.1945
715.0,103.759,17.1599
716.0,102.77,18.8244
717.0,100.823,17.9956
718.0,98.9246,16.609
719.0,98.1887,18.0157
720.0,96.589,18.1479
721.0,95.2695,16.518
722.0,94.875,17.2635
723.0,92.6522,16.7212
724.0,92.5483,13.1727
725.0,92.279,14.5711
726.0,89.1098,14.9978
727.0,89.6117,14.5461
728.0,88.8325,16.4406
729.0,86.5127,16.168
730.0,85.6652,16.1608
731.0,84.0831,16.5703
732.0,83.2924,15.6228
733.0,83.8796,14.9306
734.0,82.3522,16.0682
735.0,80.6311,14.7242
736.0,79.4175,13.1917
737.0,78.8694,14.2942
738.0,77.1652,14.9993
739.0,77.0511,13.0408
740.0,74.1277,13.7337
741.0,71.1151,14.7174
742.0,72.4833,11.6417
743.0,71.7337,13.6408
744.0,71.0513,14.0649
745.0,73.3204,12.8674
746.0,71.6171,13.0374
747.0,69.8501,10.5177
748.0,69.634,10.4655
749.0,68.4187,10.6337
750.0,68.8443,10.3831
751.0,70.4814,9.91819
752.0,68.3427,10.6971
753.0,66.7698,10.0218
754.0,67.3769,9.66611
755.0,65.6711,10.761
756.0,65.6312,11.1805
757.0,67.0833,10.5304
758.0,64.109,9.48618
759.0,62.0687,9.4877
760.0,63.9008,9.34265
761.0,62.0663,9.19434
762.0,61.7206,9.5181
763.0,62.5266,8.9309
764.0,59.6353,8.70526
765.0,58.8929,8.3321
766.0,59.422,6.55268
767.0,59.7442,6.7707
768.0,59.3056,9.35429
769.0,59.9398,7.19199
770.0,58.5462,6.12518
771.0,57.3088,8.88052
772.0,57.362,8.38155
773.0,56.6498,8.977
774.0,57.0861,10.5325
775.0,57.2612,7.86716
776.0,54.4763,8.28796
777.0,55.1141,7.19034
778.0,56.0384,6.35729
779.0,54.096,7.95196
780.0,54.6603,8.89281
781.0,54.6815,6.96405
782.0,53.0619,6.52315
783.0,53.3931,6.3092
784.0,52.9913,4.46893
785.0,53.0185,6.42336
786.0,52.3138,6.36994
787.0,51.3965,6.11695
788.0,50.0398,5.12712
789.0,50.9567,3.77189
790.0,50.7498,4.80818
791.0,50.2861,4.86558
792.0,53.1613,3.78591
793.0,53.5768,3.96762
794.0,50.5514,4.44084
795.0,51.3906,4.36592
796.0,52.4085,3.81893
797.0,51.4846,4.78659
798.0,52.2829,4.48514
799.0,51.7465,4.41813
800.0,49.9817,3.89742
801.0,50.4531,4.30379
802.0,49.9316,3.5773
803.0,49.2136,4.95437
804.0,49.0956,5.65483
805.0,48.1031,3.94423
806.0,46.6297,3.95262
807.0,48.1068,4.29827
808.0,47.6731,4.20294
809.0,47.8732,5.43816
810.0,49.5258,3.54317
811.0,47.1126,2.93946
812.0,45.8301,3.45882
813.0,47.7218,3.69097
814.0,47.9276,1.85072
815.0,46.6166,4.37475
816.0,47.4977,2.80074
817.0,46.678,1.45909
818.0,44.9166,3.0587
819.0,46.0935,3.8947
820.0,47.0955,2.26962
821.0,45.6826,3.71828
822.0,46.2574,3.57121
823.0,46.396,2.58826
824.0,44.1901,1.57072
825.0,45.4707,2.39967
826.0,46.8955,2.62618
827.0,45.7085,2.33679
828.0,45.2062,2.81397
829.0,45.0605,4.56117
830.0,44.4178,3.61419
831.0,44.731,2.37233
832.0,46.193,2.70766
833.0,44.4068,3.38826
834.0,43.0417,2.01867
835.0,44.2856,3.92846
836.0,43.7338,5.1311
837.0,43.503,2.74968
838.0,45.235,1.25809
839.0,43.1739,3.33619
840.0,42.1464,3.49169
841.0,43.7073,3.62938
842.0,42.5079,2.88833
843.0,43.21,2.62551
844.0,44.6919,2.78615
845.0,43.11,3.70717
846.0,41.4072,2.2034
847.0,41.109,2.09285
848.0,40.478,1.70761
849.0,41.8255,2.07865
850.0,42.4825,2.25349
851.0,41.1086,2.50094
852.0,42.2951,3.15258
853.0,43.0542,2.48028
854.0,41.8223,3.85667
855.0,44.0238,3.75636
856.0,43.6705,2.63347
857.0,41.2254,2.77171
858.0,42.6947,2.86194
859.0,41.4263,1.86783
860.0,41.6189,2.23553
861.0,42.9542,2.55249
862.0,41.7863,2.21787
863.0,41.8189,3.3664
864.0,42.0971,2.58061
865.0,41.7044,2.47043
866.0,41.9429,4.14201
867.0,42.8062,2.08297
868.0,42.2633,3.3741
869.0,41.717,4.20519
870.0,40.7685,2.09555
871.0,40.4393,2.57596
872.0,40.5333,2.8085
873.0,42.1668,1.58366
874.0,42.5341,0.41437
875.0,40.7585,1.70878
876.0,41.1244,1.45678
877.0,41.1387,2.60071
878.0,41.3112,3.13417
879.0,41.5989,1.2398
880.0,41.1417,1.66137
881.0,39.9597,1.45014
882.0,39.9517,1.28395
883.0,40.1227,1.74463
884.0,40.5229,1.08944
885.0,41.5169,1.35643
886.0,40.1632,0.957552
887.0,39.004,1.84022
888.0,40.1787,3.12567
889.0,39.9923,1.54026
890.0,40.2289,1.94818
891.0,40.9446,0.545898
892.0,39.8922,3.18339
893.0,39.157,2.77761
894.0,38.2674,1.91197
895.0,39.6244,3.28758
896.0,40.5015,2.33294
897.0,40.0778,1.69781
898.0,39.6986,2.69381
899.0,40.0758,2.20758
900.0,38.6477,0.621259
901.0,39.7363,2.048
902.0,40.8987,2.0043
903.0,39.8782,1.42614
904.0,39.8607,2.29241
905.0,40.178,3.24151
906.0,38.7764,1.70353
907.0,39.8884,1.81964
908.0,42.0375,1.1578
909.0,39.5766,2.19815
910.0,40.4211,3.47036
911.0,40.8902,3.56016
912.0,38.7681,2.20322
913.0,40.5064,3.04661
914.0,41.1436,1.41768
915.0,39.774,3.07041
916.0,39.5062,5.03369
917.0,39.27,3.68615
918.0,39.5383,2.35818
919.0,40.7734,2.91424
920.0,40.5042,2.38933
921.0,39.8629,0.972414
922.0,40.7316,4.11333
923.0,39.8144,3.00648
924.0,40.3666,0.948218
925.0,42.4165,0.700543
926.0,41.9976,1.0861
927.0,39.7235,1.48684
928.0,40.4683,4.56109
929.0,39.1274,3.07299
930.0,39.0756,2.14665
931.0,40.5611,2.16547
932.0,39.4154,0.811223
933.0,38.7702,2.91804
934.0,39.4123,6.02638
935.0,38.1648,3.98686
936.0,40.4241,3.86067
937.0,40.8665,2.33828
938.0,39.2596,1.75516
939.0,39.2602,4.93278
940.0,37.9903,5.12532
941.0,38.1258,3.26553
942.0,41.0578,2.96618
943.0,40.7788,1.17168
944.0,39.2618,1.21802
945.0,40.1208,4.36186
946.0,38.6976,2.9932
947.0,38.0479,1.14995
948.0,40.7728,2.7722
949.0,39.5655,0.813231
950.0,38.0265,0.278809
951.0,38.6661,3.66619
952.0,37.2257,2.17027
953.0,37.9976,0.413448
954.0,41.0516,1.12206
955.0,39.5995,0.275197
956.0,37.7121,0.895397
957.0,37.5129,3.17028
958.0,36.8107,2.05335
959.0,37.6385,0.194146
960.0,40.3715,0.557019
961.0,39.0524,
962.0,36.9868,
963.0,35.7685,
964.0,35.1279,
965.0,36.5937,
966.0,37.5707,
967.0,36.2205,
968.0,33.681,
969.0,32.0752,
970.0,32.539,
971.0,34.5725,
972.0,35.5384,
973.0,34.265,
974.0,32.5699,
975.0,32.2597,
976.0,33.3917,
977.0,35.9671,
978.0,36.7268,
979.0,34.6403,
980.0,33.1221,
981.0,33.3022,
982.0,34.7172,
983.0,36.0891,
984.0,35.7487,
985.0,33.4057,
986.0,32.5803,
987.0,33.5669,
988.0,35.045,
989.0,36.6077,
990.0,36.5259,
991.0,34.6543,
992.0,32.8206,
993.0,32.5963,
994.0,33.8831,
995.0,35.2194,