File: Exp-Data_Prepared-Final/FTT-White/2019/Balsa_20kW_vert_Average.csv
Time (s),HRRPUA (kW/m2),Uc HRRPUA (kW/m2)
4.0,-0.318564,-3.89301
5.0,-1.40936,-2.73661
6.0,-0.723121,-2.06489
7.0,-0.542924,-2.85769
8.0,-1.08328,-2.90506
9.0,-1.59899,-3.57447
10.0,-1.78453,-3.50671
11.0,-1.67729,-2.02259
12.0,-0.719343,-2.25958
13.0,-0.588985,-3.09099
14.0,-0.877739,-3.56086
15.0,-0.892927,-4.17242
16.0,-1.08355,-3.33823
17.0,-0.787498,-2.20742
18.0,0.150173,2.87399
19.0,-0.134314,-3.55166
20.0,-0.583926,-3.69313
21.0,-0.627368,-3.93368
22.0,-0.717783,-3.27772
23.0,-0.36059,-2.95342
24.0,0.421134,3.21131
25.0,0.221342,3.48801
26.0,-0.405685,-3.47519
27.0,-0.498875,-3.91505
28.0,-0.653424,-3.28836
29.0,-0.0680871,-2.90339
30.0,0.342483,3.28436
31.0,-0.204972,-3.58396
32.0,-0.711641,-4.31638
33.0,-0.921578,-4.63069
34.0,-0.964458,-3.6665
35.0,-0.406775,-3.02329
36.0,-0.176953,-3.3243
37.0,-0.619641,-3.99255
38.0,-1.18297,-4.87325
39.0,-1.83073,-4.40739
40.0,-1.8678,-2.88211
41.0,-1.0078,-2.32008
42.0,-0.446837,-3.33842
43.0,-0.758143,-4.24785
44.0,-1.00691,-4.98683
45.0,-1.42238,-3.87251
46.0,-0.906659,-2.45678
47.0,0.125164,2.72445
48.0,0.203242,3.88982
49.0,-0.346822,-4.30874
50.0,-0.896845,-4.37278
51.0,-1.46843,-3.33001
52.0,-1.18194,-2.67481
53.0,-0.368383,-3.66207
54.0,-0.350833,-4.25331
55.0,-0.649391,-4.18661
56.0,-1.00523,-3.96634
57.0,-1.48795,-2.93723
58.0,-1.00704,-2.34063
59.0,-0.392909,-3.26886
60.0,-0.604873,-3.53564
61.0,-0.910649,-3.85246
62.0,-1.25373,-4.02408
63.0,-1.4754,-2.86704
64.0,-0.470861,-2.22993
65.0,0.35319,2.7136
66.0,0.126962,3.07519
67.0,-0.293075,-3.55862
68.0,-0.780432,-3.02885
69.0,-0.800021,-1.80593
70.0,0.213481,2.70917
71.0,0.787553,3.93628
72.0,0.513751,4.26651
73.0,0.185839,4.15623
74.0,-0.469868,-3.86981
75.0,-0.403635,-3.48941
76.0,0.664285,4.26948
77.0,1.13442,5.14226
78.0,0.806266,5.19465
79.0,0.62012,5.1035
80.0,0.287453,4.39998
81.0,0.947225,4.25265
82.0,2.08165,5.33847
83.0,2.16712,5.97077
84.0,1.67346,5.80491
85.0,1.1894,5.3559
86.0,0.677862,4.73073
87.0,1.14832,4.7657
88.0,1.85112,5.84551
89.0,1.86689,6.2482
90.0,1.52933,5.98371
91.0,1.18326,5.38107
92.0,1.16291,5.02439
93.0,1.97431,5.53482
94.0,2.96189,6.83135
95.0,2.72943,6.7294
96.0,2.16539,6.1647
97.0,1.6291,5.7594
98.0,1.43723,5.16193
99.0,2.31928,5.60828
100.0,2.86564,6.58852
101.0,1.98179,6.25519
102.0,1.55761,6.1375
103.0,1.00274,5.82854
104.0,1.30002,5.70081
105.0,2.35374,6.21274
106.0,2.88914,6.99862
107.0,2.4447,6.72897
108.0,1.74688,6.49113
109.0,1.32572,5.91702
110.0,1.76023,5.64958
111.0,3.02986,6.63435
112.0,3.22884,7.34444
113.0,2.56694,7.3738
114.0,2.04651,6.92125
115.0,1.69068,6.28747
116.0,2.75137,6.14433
117.0,3.58484,6.9015
118.0,3.28799,7.94141
119.0,2.99036,7.51055
120.0,2.70774,6.53243
121.0,2.85421,5.49175
122.0,3.63023,6.00446
123.0,4.17018,7.67133
124.0,4.04029,8.32692
125.0,3.81975,7.79032
126.0,3.37631,6.70228
127.0,3.42324,5.88783
128.0,4.3065,6.5447
129.0,4.76231,7.59768
130.0,4.30491,7.58206
131.0,3.88725,6.8201
132.0,3.90303,5.81609
133.0,4.47068,4.95005
134.0,5.41433,5.88769
135.0,5.54768,7.10918
136.0,5.38716,7.10335
137.0,5.12294,6.85862
138.0,5.0248,5.94745
139.0,5.71173,5.89072
140.0,6.42774,7.29346
141.0,6.48005,8.25454
142.0,6.09842,8.14765
143.0,5.88696,7.77183
144.0,5.98986,6.68462
145.0,6.60933,6.4805
146.0,7.1354,7.86194
147.0,7.17993,8.7031
148.0,6.66982,8.67823
149.0,6.41899,8.05434
150.0,6.44175,6.90436
151.0,7.15648,7.05297
152.0,7.7675,8.11742
153.0,7.39008,8.40274
154.0,7.26257,8.09272
155.0,7.0704,7.00924
156.0,7.20682,6.02594
157.0,7.83188,6.47478
158.0,8.14779,7.70187
159.0,7.95047,7.81221
160.0,7.85006,7.47218
161.0,7.529,6.49462
162.0,7.90794,5.22927
163.0,8.7731,5.95707
164.0,9.09103,7.29111
165.0,8.67896,7.47224
166.0,8.61221,7.01198
167.0,8.32271,5.84957
168.0,8.77516,4.8952
169.0,9.58203,5.71937
170.0,9.768,6.86605
171.0,9.24011,7.14012
172.0,8.9895,6.83316
173.0,8.85656,5.74398
174.0,9.8129,5.06152
175.0,10.8159,6.02386
176.0,11.1182,6.92894
177.0,10.9543,7.21091
178.0,10.5435,6.61941
179.0,10.7532,5.43532
180.0,11.4373,5.12781
181.0,12.1481,6.44295
182.0,12.129,7.30594
183.0,11.9403,7.57179
184.0,11.613,6.86215
185.0,11.5525,6.38133
186.0,12.0813,6.65942
187.0,12.6847,7.85778
188.0,12.342,8.32307
189.0,12.1657,8.05852
190.0,11.6964,7.11108
191.0,12.0476,6.1909
192.0,13.0742,6.37114
193.0,13.4678,7.30855
194.0,13.0721,7.44383
195.0,12.9428,7.3364
196.0,12.6306,6.30588
197.0,13.0624,4.93942
198.0,13.9776,5.50592
199.0,14.2343,6.66329
200.0,13.619,6.76142
201.0,13.2966,6.49095
202.0,13.1088,5.46204
203.0,13.6044,4.94107
204.0,12.9306,5.28018
205.0,12.8854,6.49996
206.0,12.5605,6.89433
207.0,12.4923,6.73005
208.0,12.0081,6.01948
209.0,12.229,4.91428
210.0,12.3955,5.37241
211.0,11.9074,6.07206
212.0,12.1591,6.48758
213.0,12.3696,5.7121
214.0,12.5402,4.21757
215.0,13.2463,3.69562
216.0,13.3628,4.75595
217.0,13.1349,5.58704
218.0,13.6939,6.06531
219.0,13.7302,5.48403
220.0,13.6645,3.965
221.0,14.4631,4.04409
222.0,14.4237,4.96769
223.0,14.1444,5.45712
224.0,14.3138,5.58534
225.0,14.1517,4.66974
226.0,14.5523,3.78178
227.0,15.0956,4.28064
228.0,15.1175,4.97984
229.0,15.1725,5.41787
230.0,15.4145,5.58111
231.0,15.4795,4.61624
232.0,15.5613,3.59686
233.0,16.0444,4.00305
234.0,15.8002,4.8054
235.0,15.8379,5.46853
236.0,15.9149,5.25193
237.0,15.57,4.2286
238.0,16.0546,3.60828
239.0,16.2995,3.90411
240.0,16.13,4.66073
241.0,16.0887,5.09365
242.0,16.3205,5.05379
243.0,16.1295,3.55549
244.0,16.466,2.90315
245.0,16.7841,3.9448
246.0,16.389,4.66421
247.0,16.5668,5.12726
248.0,16.6767,4.71703
249.0,16.8491,3.28044
250.0,17.4764,3.03831
251.0,17.2632,4.0347
252.0,16.9142,4.26097
253.0,17.0465,4.37268
254.0,16.9723,3.24621
255.0,17.2649,1.7014
256.0,17.819,2.39338
257.0,17.9728,2.72553
258.0,17.887,2.10378
259.0,18.1807,2.71913
260.0,17.6114,2.48143
261.0,17.0581,1.42248
262.0,17.5575,2.01267
263.0,17.9267,1.65423
264.0,18.0183,2.54421
265.0,18.0176,4.06859
266.0,17.1953,3.08841
267.0,17.2588,1.34716
268.0,17.9201,1.29534
269.0,18.3539,1.28371
270.0,18.5187,2.64006
271.0,18.5453,3.4173
272.0,18.0149,2.34128
273.0,18.0657,1.20492
274.0,18.7241,1.88769
275.0,18.8906,1.70082
276.0,19.1095,2.42602
277.0,18.8756,3.02404
278.0,18.4067,1.82983
279.0,18.6442,2.54707
280.0,19.0384,2.84993
281.0,18.9002,2.664
282.0,18.7512,2.61874
283.0,18.4359,2.53532
284.0,17.7347,2.03793
285.0,17.2617,2.69319
286.0,17.6838,3.79844
287.0,17.6475,3.23492
288.0,18.2345,3.08551
289.0,17.862,2.66331
290.0,16.9913,1.66156
291.0,17.1044,2.26635
292.0,17.716,3.2515
293.0,18.2119,2.95096
294.0,18.8249,3.2702
295.0,17.3561,2.02614
296.0,17.0006,1.49396
297.0,17.3904,2.96315
298.0,17.2385,2.8172
299.0,16.6531,1.56165
300.0,16.9745,2.26489
301.0,16.5597,1.52352
302.0,16.4346,0.896703
303.0,17.351,2.63929
304.0,17.4899,2.1344
305.0,17.4529,1.16357
306.0,17.8176,1.86267
307.0,17.5361,1.58801
308.0,18.825,1.39111
309.0,20.0629,2.63003
310.0,19.3004,1.52225
311.0,18.6338,1.3848
312.0,19.1156,2.96663
313.0,18.644,2.19421
314.0,19.3367,2.25548
315.0,19.8888,2.40317
316.0,18.7953,1.02971
317.0,18.5099,2.61675
318.0,19.018,3.48612
319.0,19.1897,1.74108
320.0,19.7484,1.72738
321.0,20.1387,2.55855
322.0,19.2369,0.637888
323.0,18.7931,1.87975
324.0,18.8666,2.59123
325.0,18.9943,0.462203
326.0,19.6772,1.8492
327.0,19.0251,2.61466
328.0,17.9483,1.75045
329.0,18.0392,2.76052
330.0,17.9637,2.94592
331.0,18.2679,1.3584
332.0,19.0237,2.40134
333.0,19.0779,3.06205
334.0,18.2172,3.13592
335.0,17.9457,4.4455
336.0,17.853,4.04284
337.0,18.5624,1.58538
338.0,19.7996,1.98315
339.0,19.3172,2.8268
340.0,18.5038,3.78288
341.0,18.4906,4.63661
342.0,18.5467,3.61666
343.0,19.1096,1.39831
344.0,19.8768,1.99153
345.0,18.9421,2.63608
346.0,18.5248,3.16157
347.0,18.309,3.73899
348.0,18.0744,2.08273
349.0,18.8058,1.35849
350.0,18.63,3.19211
351.0,17.9748,3.48945
352.0,17.3403,3.63594
353.0,17.7589,4.31846
354.0,17.722,2.42553
355.0,18.8969,1.60431
356.0,19.1811,3.16119
357.0,18.153,3.01136
358.0,17.8539,3.61448
359.0,18.0179,3.59174
360.0,18.1579,1.68913
361.0,18.8205,2.36913
362.0,18.5259,3.62181
363.0,17.8,3.44663
364.0,17.6613,3.86123
365.0,17.8601,3.49434
366.0,18.1717,1.86604
367.0,19.0299,2.286
368.0,18.7721,3.32819
369.0,17.8444,3.23407
370.0,17.6991,4.08322
371.0,18.0794,3.0435
372.0,18.5121,1.8317
373.0,19.5466,3.512
374.0,18.5853,2.80721
375.0,17.7097,2.13887
376.0,17.8382,3.86709
377.0,17.7615,2.68281
378.0,18.3902,0.854358
379.0,19.325,1.9172
380.0,18.405,1.02852
381.0,17.9465,1.99842
382.0,18.612,3.57095
383.0,18.3536,1.16487
384.0,18.722,2.23957
385.0,18.745,1.52015
386.0,18.339,0.385461
387.0,19.1383,3.21324
388.0,19.9778,3.45939
389.0,20.3034,1.45851
390.0,21.1948,1.46275
391.0,20.8882,1.13824
392.0,20.1188,1.06803
393.0,20.6751,4.7136
394.0,20.7581,4.38975
395.0,20.4001,1.04949
396.0,20.1556,2.13457
397.0,18.6542,0.429378
398.0,17.81,1.60003
399.0,19.0072,3.64433
400.0,19.3662,2.54237
401.0,19.027,1.45187
402.0,18.8342,3.61737
403.0,18.448,2.72611
404.0,18.4358,0.0561557
405.0,19.5313,2.2546
406.0,19.4611,0.925737
407.0,18.9386,2.7997
408.0,18.6364,4.23808
409.0,17.3985,2.14114
410.0,17.4145,0.697523
411.0,18.0033,2.6931
412.0,17.8407,1.14105
413.0,17.949,2.13258
414.0,17.7277,3.03442
415.0,16.5053,0.272376
416.0,17.3927,2.34621
417.0,18.1238,3.24015
418.0,17.9982,0.70558
419.0,18.0399,2.87062
420.0,17.3686,2.53323
421.0,16.6821,0.012268
422.0,17.596,2.93594
423.0,17.9527,2.52475
424.0,17.6525,0.711894
425.0,17.8491,3.80285
426.0,16.9247,3.01156
427.0,16.6514,0.14269
428.0,17.4774,2.47809
429.0,18.155,1.43894
430.0,17.7109,1.256
431.0,17.6714,3.93132
432.0,16.5263,2.90843
433.0,16.1431,0.382083
434.0,17.0074,1.91122
435.0,17.1241,0.962074
436.0,16.8386,3.3595
437.0,16.2659,4.64788
438.0,15.2722,2.72522
439.0,15.1544,0.220948
440.0,16.3801,2.17652
441.0,16.7572,0.807172
442.0,17.4234,2.88155
443.0,17.0097,3.31093
444.0,16.7153,0.284622
445.0,17.1934,2.77485
446.0,18.0076,3.94575
447.0,18.3231,2.29316
448.0,18.6096,0.830592
449.0,18.1725,1.10794
450.0,17.2306,1.36147
451.0,18.0102,3.61937
452.0,18.8706,4.04949
453.0,18.7996,1.24421
454.0,19.5103,2.37885
455.0,18.6997,1.44059
456.0,17.8619,0.652102
457.0,17.97,2.7873
458.0,17.6751,2.98987
459.0,17.3804,0.260498
460.0,17.0314,2.22739
461.0,16.7049,1.79603
462.0,16.285,0.915893
463.0,16.8953,3.77536
464.0,17.2802,3.63958
465.0,16.7697,0.597375
466.0,16.4028,3.71312
467.0,15.5032,2.39788
468.0,15.2526,0.440972
469.0,16.4113,1.48982
470.0,16.3489,0.294832
471.0,16.2638,3.57964
472.0,19.3824,
473.0,16.7954,
474.0,14.6725,
475.0,14.2287,
476.0,15.5393,
477.0,18.7259,
478.0,18.9781,
479.0,16.7802,
480.0,14.8972,
481.0,15.8471,
482.0,17.9134,
483.0,20.2871,
484.0,19.6972,
485.0,17.9793,
486.0,16.7279,
487.0,17.2049,
488.0,19.4188,
489.0,20.7485,
490.0,18.397,
491.0,16.1253,
492.0,14.6015,
493.0,16.3312,
494.0,18.7747,
495.0,20.8809,
496.0,19.0291,
497.0,16.906,
498.0,15.61,
499.0,15.9922,
500.0,18.1771,
501.0,19.1445,
502.0,16.224,
503.0,14.5124,
504.0,13.8768,
505.0,14.9339,
506.0,17.5182,
507.0,18.0618,
508.0,16.145,
509.0,13.4476,
510.0,13.1515,
511.0,14.2676,
512.0,16.2479,
513.0,15.8542,
514.0,13.6646,
515.0,12.0435,
516.0,12.2492,
517.0,14.1868,
518.0,15.7979,
519.0,14.847,
520.0,12.7375,
521.0,11.2225,
522.0,11.6075,
523.0,13.2049,
524.0,16.5287,
525.0,15.6779,
526.0,13.2296,
527.0,12.1968,
528.0,12.944,
529.0,16.1933,
530.0,18.5357,
531.0,15.7059,
532.0,14.4371,
533.0,13.7548,
534.0,15.5562,
535.0,18.0712,
536.0,20.4078,
537.0,18.0935,
538.0,16.3238,
539.0,15.1475,
540.0,16.2096,
541.0,18.9631,
542.0,19.3475,
543.0,16.9024,
544.0,15.3019,
545.0,15.0791,
546.0,16.9392,
547.0,18.5916,
548.0,18.2356,
549.0,15.9934,
550.0,15.2957,
551.0,15.3356,
552.0,18.0266,
553.0,20.9421,
554.0,19.7629,
555.0,17.3853,
556.0,16.2393,
557.0,16.7649,
558.0,19.1581,
559.0,21.1618,
560.0,19.1772,
561.0,17.2397,
562.0,16.2818,
563.0,17.2288,
564.0,19.4552,
565.0,20.1599,
566.0,17.127,
567.0,15.0576,
568.0,13.369,
569.0,14.4719,
570.0,16.066,
571.0,16.8217,
572.0,14.3865,
573.0,12.4595,
574.0,12.3312,
575.0,14.1407,
576.0,16.6525,
577.0,17.1953,
578.0,15.0459,
579.0,13.4666,
580.0,14.621,
581.0,15.568,
582.0,16.8289,
583.0,15.9524,
584.0,13.8735,
585.0,12.6167,
586.0,13.0938,
587.0,15.0737,
588.0,17.5427,
589.0,16.8832,
590.0,14.911,
591.0,13.713,
592.0,14.4856,
593.0,16.6997,
594.0,17.6152,
595.0,15.1906,
596.0,14.228,
597.0,14.1071,
598.0,15.2307,
599.0,17.5981,
600.0,18.9822,
601.0,16.7237,
602.0,14.6071,
603.0,14.2915,
604.0,16.3943,
605.0,19.3532,
606.0,20.3959,
607.0,17.9283,
608.0,15.7241,
609.0,14.6806,
610.0,16.0917,
611.0,18.444,
612.0,18.9649,
613.0,16.926,
614.0,15.3736,
615.0,15.6885,
616.0,16.9531,
617.0,19.7163,
618.0,18.6527,
619.0,16.5436,
620.0,15.3579,
621.0,15.7836,
622.0,18.2015,
623.0,19.2446,
624.0,17.6919,
625.0,14.3849,
626.0,13.2063,
627.0,14.116,
628.0,16.1812,
629.0,17.7296,
630.0,16.7645,
631.0,15.1221,
632.0,15.4581,
633.0,16.784,
634.0,19.3998,
635.0,20.048,
636.0,18.1086,
637.0,15.9497,
638.0,15.5584,
639.0,16.9129,
640.0,19.7185,
641.0,20.0011,
642.0,16.5121,
643.0,14.3691,
644.0,14.4518,
645.0,16.3187,
646.0,18.8718,
647.0,18.2464,
648.0,16.2958,
649.0,14.6928,
650.0,14.8775,
651.0,16.6766,
652.0,19.3262,
653.0,18.6605,
654.0,16.6022,
655.0,15.6679,
656.0,17.1042,
657.0,19.3429,
658.0,21.7254,
659.0,19.9941,
660.0,17.6072,
661.0,16.8053,
662.0,17.7302,
663.0,19.9228,
664.0,20.88,
665.0,18.3054,
666.0,16.2191,
667.0,15.5637,
668.0,16.9219,
669.0,19.4619,
670.0,20.4574,
671.0,18.1144,
672.0,15.9216,
673.0,15.3244,
674.0,16.8821,
675.0,18.871,
676.0,18.0992,
677.0,15.4483,
678.0,14.0104,
679.0,14.2825,
680.0,16.7786,
681.0,19.4146,
682.0,17.8624,
683.0,14.4938,
684.0,11.9766,
685.0,11.388,
686.0,13.2724,
687.0,15.3447,
688.0,15.0348,
689.0,12.7441,
690.0,12.8432,
691.0,13.5999,
692.0,17.254,
693.0,18.6477,
694.0,15.7939,
695.0,13.4019,
696.0,13.0257,
697.0,14.0493,
698.0,16.4468,
699.0,17.7106,
700.0,15.252,
701.0,13.3355,
702.0,13.0608,
703.0,14.2995,
704.0,16.9933,
705.0,16.8476,
706.0,14.4715,
707.0,13.0007,
708.0,12.7706,
709.0,15.1566,
710.0,17.7839,
711.0,17.3743,
712.0,15.3134,
713.0,13.8774,
714.0,14.2345,
715.0,16.0609,
716.0,18.694,
717.0,16.5944,
718.0,14.1063,
719.0,11.9562,
720.0,12.108,
721.0,14.392,
722.0,16.3482,
723.0,15.2877,
724.0,13.5002,
725.0,11.8497,
726.0,12.4359,
727.0,14.8765,
728.0,16.2806,
729.0,14.325,
730.0,11.3783,
731.0,10.6418,
732.0,11.8656,
733.0,14.4608,
734.0,16.0455,
735.0,13.9433,
736.0,12.3262,
737.0,11.9714,
738.0,13.581,
739.0,16.1009,
740.0,16.1876,
741.0,13.1887,
742.0,11.3823,
743.0,12.1246,
744.0,14.2397,
745.0,17.5207,
746.0,16.5747,
747.0,14.5502,
748.0,12.7519,
749.0,12.5613,
750.0,13.8444,
751.0,16.0856,
752.0,13.7704,
753.0,11.2616,
754.0,9.99996,
755.0,10.674,
756.0,13.2747,
757.0,16.0633,
758.0,14.2419,
759.0,11.1708,
760.0,10.2074,
761.0,11.2154,
762.0,13.8578,
763.0,15.1044,
764.0,13.3838,
765.0,12.2723,
766.0,12.6222,
767.0,14.3672,
768.0,17.4665,
769.0,17.9065,
770.0,15.2726,
771.0,13.5292,
772.0,12.6774,
773.0,13.9864,
774.0,16.4753,
775.0,15.6274,
776.0,12.7596,
777.0,11.939,
778.0,12.4033,
779.0,14.1373,
780.0,17.1556,
781.0,15.921,
782.0,13.3061,
783.0,11.4684,
784.0,11.8189,
785.0,12.9074,
786.0,14.8706,
787.0,13.2921,
788.0,11.0047,
789.0,10.1925,
790.0,10.8373,
791.0,13.272,
792.0,14.7804,
793.0,12.493,
794.0,11.5342,
795.0,11.2073,
796.0,12.1253,
797.0,14.8548,
798.0,15.8687,
799.0,13.6468,
800.0,10.6932,
801.0,10.4217,
802.0,11.6984,
803.0,14.3375,
804.0,15.1789,
805.0,13.1699,
806.0,11.5551,
807.0,11.6364,
808.0,14.2478,
809.0,16.9784,
810.0,16.2236,
811.0,12.9542,
812.0,11.4321,
813.0,11.8671,
814.0,13.5781,
815.0,16.2561,
816.0,14.9048,
817.0,12.6702,
818.0,10.6628,
819.0,10.7083,
820.0,13.3795,
821.0,15.3544,
822.0,13.6085,
823.0,11.3075,
824.0,10.5405,
825.0,11.4063,
826.0,13.8616,
827.0,15.0395,
828.0,13.7605,
829.0,11.9058,
830.0,11.6191,
831.0,12.6804,
832.0,15.4676,
833.0,15.8902,
834.0,13.655,
835.0,11.1082,
836.0,10.306,
837.0,12.0279,
838.0,14.6041,
839.0,14.5206,
840.0,12.1383,
841.0,9.57379,
842.0,9.51167,
843.0,12.0293,
844.0,15.0083,
845.0,15.179,
846.0,12.8458,
847.0,11.395,
848.0,11.9574,
849.0,13.3785,
850.0,15.0342,
851.0,13.3685,
852.0,11.1599,
853.0,10.9551,
854.0,12.0594,
855.0,14.563,
856.0,15.7957,
857.0,12.9239,
858.0,10.966,
859.0,10.2759,
860.0,11.4783,
861.0,13.8188,
862.0,15.2715,
863.0,13.5046,
864.0,12.3865,