File: Exp-Data_Prepared-Final/FTT-White/2019/Ipe_20kW_vert_Average.csv
Time (s),HRRPUA (kW/m2),Uc HRRPUA (kW/m2)
4.0,1.3759,
6.0,-0.658463,-0.300937
8.0,2.41544,2.44457
10.0,-0.939709,-1.84262
12.0,0.29242,1.28494
14.0,-0.0581355,-2.77818
16.0,-1.76835,-0.552096
18.0,-0.669077,-2.47293
20.0,-0.977967,-2.89249
22.0,-2.10144,-0.976417
24.0,-0.717388,-3.38938
26.0,-1.54873,-3.48684
28.0,-1.85069,-3.02786
30.0,-0.197329,-4.94181
32.0,-0.338639,-3.47486
34.0,-0.635111,-1.77825
36.0,1.19964,3.83899
38.0,-0.328573,-3.55173
40.0,-0.281671,-1.50901
42.0,0.444611,2.54046
44.0,-0.92718,-2.05177
46.0,-0.0469261,-1.98522
48.0,1.38071,2.27573
50.0,0.313666,1.3364
52.0,0.588136,2.0381
54.0,1.82693,2.04182
56.0,-0.138288,-1.46495
58.0,0.434901,1.73665
60.0,0.609299,3.77392
62.0,-0.966296,-2.32232
64.0,0.231999,1.72726
66.0,0.212327,3.64169
68.0,-1.74324,-1.4411
70.0,-0.0442441,-3.20671
72.0,0.167487,2.85475
74.0,-1.36926,-0.954424
76.0,0.12242,4.12586
78.0,-0.215641,-2.80343
80.0,-1.88085,-1.3334
82.0,-0.0794318,-3.6379
84.0,-0.282933,-1.68496
86.0,-0.794967,-2.10532
88.0,1.03531,4.66727
90.0,0.662699,2.46542
92.0,-0.722338,-3.02062
94.0,0.79074,4.61694
96.0,0.251728,2.24026
98.0,0.389822,2.40087
100.0,1.16579,3.67006
102.0,-0.445856,-2.66195
104.0,-0.565748,-1.69809
106.0,1.07789,2.90887
108.0,0.125388,2.31474
110.0,-0.321077,-2.31376
112.0,0.857486,2.17882
114.0,-0.374759,-2.52424
116.0,-0.124282,-1.39432
118.0,0.676199,2.59802
120.0,-1.4726,-1.3124
122.0,-0.470922,-3.17805
124.0,1.14819,3.20345
126.0,-0.668238,-0.829009
128.0,0.494236,2.78979
130.0,1.29784,2.71312
132.0,-0.0492433,-1.38015
134.0,1.00171,1.28639
136.0,1.25248,3.81663
138.0,-0.393728,-1.5021
140.0,1.47213,2.07084
142.0,0.628522,3.32521
144.0,-1.63755,-0.343643
146.0,-0.213451,-2.92122
148.0,0.049585,1.36677
150.0,-0.799816,-2.00099
152.0,0.995183,3.64714
154.0,-0.282248,-1.9301
156.0,-1.61335,-2.42811
158.0,-0.728719,-3.06579
160.0,-1.39165,-1.20972
162.0,-2.20459,-1.94934
164.0,0.274806,1.58966
166.0,-0.780481,-2.02943
168.0,-1.68997,-1.84468
170.0,-0.115846,-2.02759
172.0,-1.04816,-2.85498
174.0,-0.553273,-1.19992
176.0,-0.336576,-2.19439
178.0,-1.80535,-3.87042
180.0,-0.423856,-1.87896
182.0,0.629661,1.66721
184.0,-1.28066,-2.40893
186.0,-0.354127,-2.37057
188.0,0.555693,1.10711
190.0,-0.451505,-1.22448
192.0,0.16109,2.05748
194.0,0.11169,2.05619
196.0,-1.56425,-2.02389
198.0,-0.263293,-1.61363
200.0,0.649003,3.61009
202.0,-0.865417,-2.81121
204.0,1.16174,1.32332
206.0,0.888986,4.90793
208.0,-0.637586,-2.24772
210.0,1.08905,3.72023
212.0,0.794158,4.7954
214.0,-1.13021,-2.69673
216.0,0.401026,4.64439
218.0,-0.202526,-5.0402
220.0,-1.51967,-3.11155
222.0,-0.447117,-5.14892
224.0,-0.63038,-5.59058
226.0,-0.556641,-2.30088
228.0,0.593353,4.98945
230.0,-0.31523,-3.41126
232.0,-0.644076,-2.67369
234.0,0.852712,3.86014
236.0,-0.574466,-1.83734
238.0,-0.344221,-2.09882
240.0,0.916685,2.75866
242.0,-0.357183,-2.19816
244.0,0.184769,2.63257
246.0,1.15222,2.34031
248.0,-0.68187,-0.693159
250.0,0.300496,2.60817
252.0,0.414964,1.98374
254.0,-1.26307,-1.90811
256.0,-0.240899,-1.46071
258.0,0.275696,3.2754
260.0,-1.33152,-1.83881
262.0,-0.275646,-3.42539
264.0,0.143096,2.62047
266.0,-1.55598,-0.034338
268.0,0.656174,1.29616
270.0,1.1111,2.68177
272.0,-0.719957,-1.56093
274.0,0.882511,1.24048
276.0,0.645898,2.28372
278.0,-1.12433,-1.50639
280.0,0.36519,2.13812
282.0,-0.55385,-2.58571
284.0,-2.18683,-1.78259
286.0,-0.397674,-4.39003
288.0,-0.589827,-2.28541
290.0,-0.927213,-4.24299
292.0,0.648857,5.5463
294.0,-0.761145,-3.08244
296.0,-1.26985,-3.62603
298.0,0.275775,3.41529
300.0,-0.646366,-2.0235
302.0,-0.519889,-2.08627
304.0,0.397873,2.52232
306.0,-0.91164,-1.23852
308.0,0.247911,2.96316
310.0,1.87499,0.632673
312.0,-0.361448,-2.19668
314.0,-0.214664,-3.53304
316.0,0.146022,1.10498
318.0,-1.9545,-0.666409
320.0,-0.861456,-2.57214
322.0,-0.517977,-2.61425
324.0,-2.06095,-1.31104
326.0,-0.634844,-3.16266
328.0,-0.742555,-2.72997
330.0,-2.39854,-0.634595
332.0,-0.939306,-2.75348
334.0,-0.835124,-2.75891
336.0,-2.04197,-0.617766
338.0,-0.106417,-3.29585
340.0,-0.76273,-1.14121
342.0,-1.76905,-1.48526
344.0,-0.085575,-2.53257
346.0,-0.344717,-2.82436
348.0,-1.41907,-0.812173
350.0,0.336786,1.98044
352.0,0.210888,5.07209
354.0,-0.45756,-1.61122
356.0,1.42555,4.33326
358.0,0.0911312,4.85501
360.0,-0.335145,-1.87836
362.0,1.18237,3.67562
364.0,-0.730419,-2.09764
366.0,-1.15372,-2.74283
368.0,0.0544504,4.18054
370.0,-1.03553,-3.11579
372.0,-0.542165,-3.37213
374.0,0.718184,3.5068
376.0,-0.56976,-1.38024
378.0,-0.476077,-2.59424
380.0,-0.354939,-3.49129
382.0,-2.98389,-1.34351
384.0,-2.15508,-3.25754
386.0,-1.22073,-3.33074
388.0,-2.9255,-2.56973
390.0,-1.63054,-2.80713
392.0,-1.35838,-5.33805
394.0,-2.78862,-3.08719
396.0,-0.712732,-4.3473
398.0,-0.640893,-5.08522
400.0,-2.61028,-2.27037
402.0,-0.683461,-3.30595
404.0,-1.09484,-2.76722
406.0,-2.34952,-1.00875
408.0,0.21291,2.83497
410.0,0.0169133,2.13076
412.0,-0.789735,-0.855281
414.0,2.23498,2.93091
416.0,1.62817,2.66808
418.0,0.599018,0.245985
420.0,2.16708,1.37988
422.0,1.00576,2.33412
424.0,0.507541,1.38899
426.0,2.11489,2.31418
428.0,0.478638,2.68143
430.0,-0.384058,-2.1255
432.0,0.212066,3.10579
434.0,-1.83733,-1.58169
436.0,-1.71639,-3.32303
438.0,-0.456433,-3.40265
440.0,-1.88111,-1.53939
442.0,-1.14436,-2.89463
444.0,-0.848049,-2.55165
446.0,-3.40074,-0.675982
448.0,-2.25155,-3.65128
450.0,-1.36639,-2.88804
452.0,-2.44949,-1.55166
454.0,-0.399266,-2.79263
456.0,0.208397,2.42617
458.0,-1.37241,-0.769609
460.0,0.200688,3.2746
462.0,0.165796,3.28557
464.0,-1.75652,-1.69317
466.0,-0.606899,-4.24702
468.0,-0.451932,-3.60168
470.0,-1.77563,-2.10264
472.0,0.365138,3.98274
474.0,0.204147,2.45814
476.0,-0.653016,-0.259626
478.0,1.46765,1.50976
480.0,0.787722,3.64848
482.0,-0.423719,-0.491597
484.0,1.18286,2.73767
486.0,-0.259374,-2.33929
488.0,-0.395362,-1.72004
490.0,0.627769,0.916534
492.0,-0.553162,-2.81287
494.0,-0.369964,-1.17645
496.0,2.28161,2.53701
498.0,1.0843,2.43515
500.0,1.8619,1.30541
502.0,2.88788,1.9818
504.0,0.250826,2.66723
506.0,0.52284,0.681662
508.0,1.74351,4.01201
510.0,0.0153038,3.06266
512.0,1.44229,1.66874
514.0,2.69255,3.61663
516.0,0.675089,2.1049
518.0,0.900243,2.84501
520.0,0.155147,2.82862
522.0,-1.8591,-1.74538
524.0,-0.122596,-4.83224
526.0,0.351401,3.96643
528.0,-1.22704,-2.89149
530.0,0.113649,4.9527
532.0,-0.22425,-3.2522
534.0,-1.66968,-3.27544
536.0,0.482791,5.6094
538.0,-0.28986,-4.11064
540.0,-1.79452,-3.51251
542.0,0.242375,5.32284
544.0,-0.185838,-3.56755
546.0,-0.746714,-1.76776
548.0,1.09961,3.13266
550.0,-0.109446,-3.57914
552.0,-0.688822,-0.930002
554.0,0.638683,3.29374
556.0,-0.608751,-2.93653
558.0,-0.811243,-1.59391
560.0,0.5602,3.35242
562.0,-1.56403,-2.93918
564.0,-1.89709,-1.70848
566.0,-0.281255,-3.86858
568.0,-1.2187,-3.27212
570.0,-0.456175,-2.42889
572.0,-0.173627,-3.79269
574.0,-1.98109,-2.44218
576.0,-0.553332,-2.24799
578.0,0.386679,3.45542
580.0,-1.74449,-2.49475
582.0,-0.475739,-2.29287
584.0,-0.319995,-4.0078
586.0,-2.28292,-1.15026
588.0,-0.873864,-3.01516
590.0,-0.928784,-2.78012
592.0,-2.62885,-0.921281
594.0,-0.94089,-3.60801
596.0,-0.7106,-4.31622
598.0,-2.60547,-2.75166
600.0,-1.39874,-4.63944
602.0,-1.3608,-2.00031
604.0,-2.64157,-2.21556
606.0,-0.712613,-3.31781
608.0,-1.07315,-2.95288
610.0,-2.05526,-2.08636
612.0,0.0380573,3.60032
614.0,-0.591032,-2.44667
616.0,-0.656803,-2.48554
618.0,1.19287,3.37009
620.0,-0.892984,-0.319953
622.0,-1.08706,-2.60956
624.0,0.449149,2.63568
626.0,-0.718795,-1.26273
628.0,-0.161172,-2.42762
630.0,1.42061,2.29684
632.0,-1.11992,-1.66079
634.0,-0.966089,-1.64838
636.0,0.274094,2.29962
638.0,-0.710981,-1.5491
640.0,0.601374,2.69476
642.0,1.13896,1.16376
644.0,-0.835216,-0.481491
646.0,0.43001,3.00198
648.0,0.279217,2.39453
650.0,-2.14198,-1.04694
652.0,-0.391902,-2.99587
654.0,-0.494318,-3.31133
656.0,-1.97912,-2.16747
658.0,-0.605464,-4.1891
660.0,-0.84187,-4.3193
662.0,-3.21395,-2.42829
664.0,-1.62408,-3.34552
666.0,-1.59223,-3.52565
668.0,-2.08881,-2.04738
670.0,0.147768,4.01994
672.0,-0.48132,-4.35231
674.0,-0.898847,-1.51836
676.0,0.658073,2.84795
678.0,-0.61345,-3.36528
680.0,-1.81269,-0.590241
682.0,0.566481,2.99691
684.0,-1.22945,-4.74379
686.0,-1.35352,-1.87636
688.0,0.497479,5.02652
690.0,-0.518042,-3.68185
692.0,-0.0531079,-3.00974
694.0,1.59209,4.50126
696.0,0.459447,2.58875
698.0,1.28003,3.62353
700.0,2.62918,4.51923
702.0,0.296978,3.13032
704.0,1.14608,5.3917
706.0,1.83935,4.25262
708.0,0.121385,2.215
710.0,0.722357,4.63828
712.0,1.13934,3.39854
714.0,-0.814288,-1.98767
716.0,-0.149684,-3.49524
718.0,-0.696868,-3.91638
720.0,-2.92863,-2.28336
722.0,-1.59693,-2.52183
724.0,-1.98158,-4.82131
726.0,-3.6609,-2.46869
728.0,-1.84595,-3.10027
730.0,-1.96681,-5.03708
732.0,-3.34655,-2.73691
734.0,-1.14188,-3.50897
736.0,-1.64185,-4.55216
738.0,-2.21245,-0.39549
740.0,0.124739,2.23076
742.0,-0.910971,-2.68029
744.0,-1.69079,-0.987043
746.0,0.281561,3.07768
748.0,-0.634089,-2.73217
750.0,-0.412322,-1.04522
752.0,1.31081,3.12331
754.0,-0.558078,-2.78286
756.0,-0.0921221,-3.31143
758.0,1.19859,4.15465
760.0,-0.63405,-1.78749
762.0,-1.27869,-3.27669
764.0,-0.221203,-3.29774
766.0,-2.34369,-1.03991
768.0,-1.73225,-2.90664
770.0,-0.313678,-2.42081
772.0,-2.49062,-0.764486
774.0,-0.931236,-3.55261
776.0,-0.0289332,-3.61581
778.0,-1.77579,-1.90715
780.0,-0.696909,-3.84626
782.0,-0.468436,-3.89783
784.0,-2.53071,-1.86438
786.0,-0.682639,-3.64414
788.0,-1.18825,-2.38555
790.0,-2.74788,-0.970675
792.0,-0.637335,-2.79459
794.0,-0.816116,-2.51883
796.0,-2.964,-0.15629
798.0,-1.41714,-2.78482
800.0,-2.09659,-2.49251
802.0,-3.00381,-1.01169
804.0,-0.480097,-2.28704
806.0,-0.992335,-2.1939
808.0,-1.69104,-1.53644
810.0,-0.217015,-1.63866
812.0,-1.76846,-3.09564
814.0,-1.91228,-0.650551
816.0,-0.67118,-2.01157
818.0,-1.99709,-3.15354
820.0,-1.12371,-1.15707
822.0,0.649578,2.25412
824.0,-0.924492,-3.96733
826.0,-0.45891,-1.26334
828.0,0.884905,2.13092
830.0,-1.08308,-2.4108
832.0,-0.52205,-2.13931
834.0,0.0117455,4.5211
836.0,-2.54161,-2.62779
838.0,-1.93031,-3.17839
840.0,-1.21958,-3.87487
842.0,-2.48506,-1.6996
844.0,-0.927649,-2.68034
846.0,-0.364238,-2.96345
848.0,-2.76618,-1.60269
850.0,-1.11141,-3.43379
852.0,-0.830586,-3.48048
854.0,-2.31415,-1.99331
856.0,-0.606114,-2.85715
858.0,-0.963672,-5.38588
860.0,-2.7489,-2.54325
862.0,-0.985114,-3.59843
864.0,-1.63648,-5.36759
866.0,-2.71113,-2.08621
868.0,-0.860983,-3.64652
870.0,-1.47222,-3.40693
872.0,-2.67471,-0.996259
874.0,-0.559228,-3.55575
876.0,-1.34221,-2.57127
878.0,-2.16201,-1.75742
880.0,-1.08086,-4.06308
882.0,-1.84155,-3.35958
884.0,-1.5919,-2.42855
886.0,0.0247369,4.01878
888.0,-1.72993,-2.00501
890.0,-1.02467,-1.65583
892.0,-0.166439,-2.43679
894.0,-1.93645,-1.85868
896.0,-1.47189,-3.10881
898.0,-0.907315,-3.48928
900.0,-2.50236,-2.27737
902.0,-1.68386,-4.05484
904.0,-1.14663,-3.35763
906.0,-2.7715,-1.63886
908.0,-1.51374,-5.02284
910.0,-1.25786,-3.07122
912.0,-2.97793,-3.12544
914.0,-1.45475,-5.98262
916.0,-1.16761,-2.52355
918.0,-2.68603,-1.45338
920.0,-1.22916,-2.48907
922.0,-1.21297,-3.61469
924.0,-2.47934,-1.16427
926.0,-0.229661,-2.71286
928.0,-0.307363,-3.52404
930.0,-1.92974,-0.461771
932.0,0.0458399,1.12815
934.0,-1.0635,-2.43834
936.0,-1.67007,-1.06955
938.0,0.426257,3.13283
940.0,-1.12394,-1.24969
942.0,-1.49744,-3.40378
944.0,-0.0518835,-4.17397
946.0,-1.14077,-2.0593
948.0,-1.15657,-2.76145
950.0,0.288733,3.61378
952.0,-1.32822,-2.81312
954.0,-1.1487,-2.53212
956.0,-0.0690127,-3.07535
958.0,-1.59786,-2.19227
960.0,-0.396105,-1.2008
962.0,0.948669,2.80323
964.0,-0.827794,-1.68362
966.0,0.773411,1.93413
968.0,1.2452,4.1005
970.0,-0.352122,-2.22128
972.0,1.05775,2.87573
974.0,0.817045,2.64998
976.0,-1.19422,-0.772611
978.0,0.335034,2.63671
980.0,0.561897,2.27804
982.0,-1.16298,-0.321805
984.0,0.278509,2.78212
986.0,0.046118,2.31934
988.0,-1.81614,-2.65027
990.0,-0.470113,-4.93055
992.0,-0.777699,-2.19478
994.0,-1.42549,-2.50006
996.0,0.641429,3.79439
998.0,-0.470525,-1.51808
1000.0,-1.83764,-2.95436
1002.0,-0.10385,-4.24509
1004.0,-0.618376,-2.23196
1006.0,-0.489113,-1.85192
1008.0,1.40503,2.51934
1010.0,0.262399,2.74754
1012.0,0.0768961,2.2493
1014.0,1.76559,2.984
1016.0,0.0759182,2.30838
1018.0,0.13341,1.63231
1020.0,1.67193,4.21059
1022.0,0.158789,3.59703
1024.0,-0.00048553,-2.92057
1026.0,0.489691,4.20812
1028.0,-2.04954,-2.49794
1030.0,-1.04043,-2.45014
1032.0,-0.718204,-3.78154
1034.0,-2.30633,-1.64176
1036.0,-0.892775,-3.4721
1038.0,-0.134785,-3.15049
1040.0,-1.91319,-1.19521
1042.0,-0.0179582,-3.12633
1044.0,-0.250495,-2.64757
1046.0,-2.09574,-1.40246
1048.0,0.198386,2.65282
1050.0,-0.140913,-3.5297
1052.0,-1.96488,-0.562777
1054.0,-0.191956,-1.90312
1056.0,-1.0196,-2.70021
1058.0,-2.42029,-0.720125
1060.0,-0.152213,-2.12686
1062.0,-0.517763,-2.95032
1064.0,-1.67219,-0.767418
1066.0,0.314876,2.23277
1068.0,-0.271591,-2.16366
1070.0,-0.40077,-1.21785
1072.0,1.00325,2.53248
1074.0,-0.450072,-1.67662
1076.0,-0.775686,-2.9952
1078.0,1.25147,3.38855
1080.0,-0.365081,-1.84281
1082.0,0.585648,4.18457
1084.0,1.16784,3.8405
1086.0,-0.560785,-1.83241
1088.0,-0.297577,-4.44999
1090.0,0.764347,3.26034
1092.0,-1.40866,-0.72688
1094.0,-0.238211,-3.48559
1096.0,0.584338,2.80789
1098.0,-1.69605,-0.645929
1100.0,-0.256448,-2.7359
1102.0,-0.463027,-1.89244
1104.0,-1.98428,-0.523196
1106.0,0.0720021,3.07895
1108.0,0.598565,1.38769
1110.0,-1.2232,-0.760271
1112.0,0.675539,3.17396
1114.0,0.177301,3.03274
1116.0,-1.68143,-1.27925
1118.0,-0.0605428,-3.68001
1120.0,-0.267744,-2.97253
1122.0,-1.36015,-0.912017
1124.0,0.701369,2.72599
1126.0,-0.459037,-3.84808
1128.0,-1.26638,-0.961621
1130.0,0.0195088,2.71605
1132.0,-1.41913,-3.24128
1134.0,-2.59677,-0.672819
1136.0,-0.171067,-2.67575
1138.0,-1.78762,-1.93711
1140.0,-1.97897,-2.23269
1142.0,-0.160154,-3.53931
1144.0,-1.70063,-2.12388
1146.0,-1.57101,-2.75762
1148.0,-0.485891,-3.04319
1150.0,-2.36578,-1.45528
1152.0,-1.72369,-2.12474
1154.0,-0.0863204,-2.37838
1156.0,-1.83092,-1.98112
1158.0,-0.1796,-2.28877
1160.0,0.282439,2.67098
1162.0,-1.73243,-1.77916
1164.0,-0.625908,-1.86617
1166.0,-0.543067,-4.37576
1168.0,-2.55719,-2.02843
1170.0,-0.746609,-2.40749
1172.0,-0.75348,-3.95101
1174.0,-2.40331,-2.43339
1176.0,-0.646391,-3.75022
1178.0,-1.36559,-2.74469
1180.0,-2.31641,-1.50686
1182.0,0.243763,4.27144
1184.0,0.205982,2.97684
1186.0,-2.00307,-2.92121
1188.0,0.255864,4.36492
1190.0,-0.776863,-2.77455
1192.0,-1.71652,-2.9633
1194.0,0.0819548,4.48633
1196.0,-1.22285,-2.488
1198.0,-1.59158,-2.20199
1200.0,0.245311,3.76729
1202.0,-0.78199,-2.93752
1204.0,-1.4929,-2.81513
1206.0,0.427203,4.39383
1208.0,-1.39782,-3.29536
1210.0,-1.07186,-3.43654
1212.0,0.948882,5.51144
1214.0,-0.271153,-3.94784
1216.0,0.108875,3.67743
1218.0,1.19758,5.05078
1220.0,-1.25751,-3.48572
1222.0,-0.14281,-2.58066
1224.0,0.915381,2.74816
1226.0,-1.10847,-1.34641
1228.0,0.192505,2.27189
1230.0,0.341207,2.33964
1232.0,-1.92486,-1.48872
1234.0,-0.451301,-2.81482
1236.0,-0.0394618,-2.93989
1238.0,-0.916935,-1.04181
1240.0,1.13877,2.13046
1242.0,1.23658,2.05242
1244.0,-0.620246,-0.808943
1246.0,1.31851,2.26403
1248.0,0.717526,3.47947
1250.0,-1.4964,-1.47199
1252.0,0.451533,3.15674
1254.0,-0.319774,-5.47219
1256.0,-0.825744,-3.08825
1258.0,1.63778,4.57739
1260.0,0.556241,3.81036
1262.0,-0.741902,-1.8908
1264.0,0.725675,4.40171
1266.0,-0.281742,-5.01143
1268.0,-0.656736,-2.88129
1270.0,0.704342,4.63863
1272.0,-0.915608,-4.39595
1274.0,-0.796961,-2.20672
1276.0,0.736624,5.22066
1278.0,-0.74755,-3.92744
1280.0,-0.335944,-3.15881
1282.0,0.858747,4.72599
1284.0,-1.07826,-3.49865
1286.0,0.257748,3.9537
1288.0,1.0369,5.47138
1290.0,-0.992819,-2.93739
1292.0,-0.314513,-3.01128
1294.0,-0.486595,-3.85793
1296.0,-2.95037,-2.14126
1298.0,-1.44426,-3.84652
1300.0,-1.16779,-3.68757
1302.0,-2.82422,-1.89306
1304.0,-0.912978,-4.08754
1306.0,-1.42789,-3.49111
1308.0,-2.46268,-1.547
1310.0,-0.11499,-3.58339
1312.0,-0.586177,-1.45466
1314.0,-2.36319,-0.805728
1316.0,-0.449315,-2.3438
1318.0,-1.57366,-2.59018
1320.0,-2.71776,-0.838171
1322.0,-0.649617,-2.61705
1324.0,-1.63933,-2.71369
1326.0,-2.78415,-0.948172
1328.0,-0.388822,-1.38493
1330.0,-1.23658,-2.0632
1332.0,-1.63376,-1.95688
1334.0,-0.229421,-1.87856
1336.0,-1.1048,-0.591005
1338.0,-0.870607,-2.07185
1340.0,0.511616,2.38419
1342.0,-1.97026,-1.07316
1344.0,-1.52124,-2.66318
1346.0,0.279117,2.27411
1348.0,-1.50889,-0.503221
1350.0,-0.262363,-3.62797
1352.0,0.177306,3.15858
1354.0,-2.15339,-1.88226
1356.0,-0.478025,-3.67004
1358.0,0.83496,2.97796
1360.0,-0.912962,-0.976803
1362.0,1.34861,2.41901
1364.0,1.6771,1.23662
1366.0,-0.0556548,-0.317663
1368.0,1.58714,2.48978
1370.0,1.36964,2.16943
1372.0,-0.416065,-0.224184
1374.0,1.60853,1.63996
1376.0,1.17861,3.30599
1378.0,-0.0391017,-0.825331
1380.0,1.69412,2.71513
1382.0,0.354606,2.6407
1384.0,-0.945091,-1.51295
1386.0,1.36756,3.90371
1388.0,-0.319457,-3.14323
1390.0,-1.41812,-2.83862
1392.0,0.821047,4.71166
1394.0,-0.543953,-2.66533
1396.0,-1.29792,-3.96099
1398.0,0.0481163,5.69447
1400.0,-2.1017,-3.02751
1402.0,-1.18189,-3.1671
1404.0,1.00198,3.15244
1406.0,-0.652293,-2.07155
1408.0,-0.282474,-2.42298
1410.0,0.692109,3.50496
1412.0,-1.30719,-3.31245
1414.0,-0.545421,-1.92356
1416.0,0.03251,4.04968
1418.0,-1.98305,-1.81753
1420.0,-0.612847,-2.56975
1422.0,1.02204,3.5433
1424.0,0.0226284,1.74502
1426.0,1.50926,3.3603
1428.0,1.21455,3.83331
1430.0,-1.14589,-2.57528
1432.0,1.1446,4.03472
1434.0,1.54905,4.55371
1436.0,0.334413,3.10101
1438.0,2.24928,3.57135
1440.0,2.09612,4.22607
1442.0,0.760091,1.55162
1444.0,2.49898,2.37435
1446.0,1.41511,2.46718
1448.0,-0.349426,-0.782713
1450.0,1.08157,2.35086
1452.0,-0.426666,-1.73032
1454.0,-0.988848,-2.08524
1456.0,1.09827,1.44318
1458.0,-0.162706,-1.79271
1460.0,-0.433931,-2.16728
1462.0,2.018,2.01007
1464.0,0.858074,1.61016
1466.0,1.048,2.38437
1468.0,2.71869,1.60239
1470.0,0.982144,1.65672
1472.0,1.24448,2.05706
1474.0,2.33036,2.64789
1476.0,0.210292,1.29152
1478.0,0.928912,2.85212
1480.0,1.72675,2.75907
1482.0,-0.0958071,-0.920621
1484.0,0.794318,3.04278
1486.0,1.41939,1.45902
1488.0,-0.125204,-0.796589
1490.0,1.84038,2.82433
1492.0,2.77247,2.80206
1494.0,0.980325,2.29662
1496.0,2.55721,5.04165
1498.0,2.44164,2.88137
1500.0,0.558437,2.5795
1502.0,3.11513,4.8374
1504.0,2.90082,2.76263
1506.0,1.12616,2.49405
1508.0,3.1178,4.46705
1510.0,2.77444,1.62965
1512.0,0.800567,1.62794
1514.0,3.35479,2.27083
1516.0,2.50133,2.28837
1518.0,2.02824,1.2685
1520.0,3.91073,2.64949
1522.0,2.32704,1.96032
1524.0,1.55818,2.191
1526.0,3.24922,3.69295
1528.0,2.1925,1.22406
1530.0,1.68471,2.32234
1532.0,3.04094,3.20761
1534.0,1.94226,1.85738
1536.0,3.11089,1.43759
1538.0,4.57217,2.89535
1540.0,2.1355,3.13117
1542.0,2.65093,1.70517
1544.0,3.74457,3.64285
1546.0,1.74813,1.74856
1548.0,3.65839,2.24566
1550.0,4.60672,3.61617
1552.0,3.335,2.85299
1554.0,4.74053,1.86542
1556.0,5.22638,3.7461
1558.0,3.06818,2.00011
1560.0,4.01622,3.23679
1562.0,3.7215,3.77802
1564.0,2.51632,1.39255
1566.0,4.44516,2.58434
1568.0,4.24036,3.62812
1570.0,2.57627,0.309103
1572.0,4.72339,2.48662
1574.0,3.80091,3.06297
1576.0,2.06117,1.23241
1578.0,4.44166,2.62951
1580.0,3.17158,3.72668
1582.0,2.0267,1.23397
1584.0,3.8853,3.22297
1586.0,2.65072,3.7198
1588.0,2.331,2.05096
1590.0,4.58943,4.73584
1592.0,2.77545,4.76151
1594.0,2.51973,2.81578
1596.0,4.11159,5.15434
1598.0,3.20847,3.93738
1600.0,4.62498,3.20714
1602.0,7.06922,4.99173
1604.0,5.28063,2.397
1606.0,5.97275,3.0406
1608.0,7.64291,3.85485
1610.0,5.92599,2.82574
1612.0,7.18511,3.45793
1614.0,8.34168,3.90082
1616.0,6.4691,1.9062
1618.0,7.98033,2.69547
1620.0,8.38535,3.38422
1622.0,6.13471,1.2432
1624.0,8.04987,2.83579
1626.0,8.93937,2.90625
1628.0,6.6668,1.24362
1630.0,8.16302,3.32642
1632.0,7.95041,3.23484
1634.0,6.0196,1.00795
1636.0,7.93282,2.83058
1638.0,7.36286,2.9436
1640.0,5.85395,0.963095
1642.0,8.08733,3.24575
1644.0,7.78327,4.26921
1646.0,6.60894,2.29287
1648.0,8.14164,4.70023
1650.0,7.70669,4.50825
1652.0,7.32187,2.60373
1654.0,9.43209,3.74086
1656.0,7.91086,3.5519
1658.0,7.59819,1.81348
1660.0,9.40458,4.55687
1662.0,7.79872,3.8411
1664.0,8.48707,2.71465
1666.0,10.2362,4.22403
1668.0,8.82639,2.83093
1670.0,9.55366,2.11429
1672.0,10.5325,3.42082
1674.0,8.61865,2.415
1676.0,9.42396,2.75668
1678.0,10.1787,3.4425
1680.0,8.32536,1.93844
1682.0,9.80207,2.72033
1684.0,10.6474,4.0173
1686.0,9.36033,1.92542
1688.0,11.5397,3.02246
1690.0,12.0743,2.68354
1692.0,10.2915,1.29041
1694.0,12.2133,2.52909
1696.0,12.1869,2.76681
1698.0,10.7117,1.36956
1700.0,12.4557,2.62222
1702.0,11.9825,2.66709
1704.0,10.4461,0.831472
1706.0,12.5738,2.77834
1708.0,11.6627,2.85373
1710.0,10.8567,0.790184
1712.0,12.4863,2.08661
1714.0,11.4631,3.42751
1716.0,11.2463,0.414873
1718.0,13.3255,2.16629
1720.0,12.4071,3.00889
1722.0,11.5842,1.37667
1724.0,13.1468,2.50952
1726.0,11.6192,1.81577
1728.0,11.8267,1.57704
1730.0,13.7907,1.81593
1732.0,12.6136,0.65344
1734.0,13.5636,2.25946
1736.0,15.5587,3.02062
1738.0,13.5448,2.15803
1740.0,14.708,2.12649
1742.0,15.5363,3.16069
1744.0,14.0846,1.76397
1746.0,15.5769,2.58198
1748.0,16.0787,2.37385
1750.0,14.0907,0.575383
1752.0,15.4615,2.55276
1754.0,15.4369,2.82696
1756.0,13.2902,0.791731
1758.0,15.7737,2.33937
1760.0,15.4279,2.93473
1762.0,13.3309,0.26651
1764.0,15.0583,2.03452
1766.0,13.8495,1.80759
1768.0,12.1708,0.873219
1770.0,14.3056,1.77993
1772.0,14.1425,2.42101
1774.0,13.3189,0.739152
1776.0,15.9795,1.99628
1778.0,14.9386,3.05022
1780.0,14.1986,0.352674
1782.0,15.9876,1.92439
1784.0,15.2966,2.56894
1786.0,15.012,0.967943
1788.0,17.1044,2.07792
1790.0,15.6853,2.02039
1792.0,15.9603,1.25665
1794.0,18.0594,2.73994
1796.0,15.9306,2.58435
1798.0,16.4616,2.12259
1800.0,16.8059,2.7608
1802.0,14.9578,1.18703
1804.0,16.3268,3.17138
1806.0,17.1422,3.11164
1808.0,14.5656,1.7717
1810.0,15.9691,3.54657
1812.0,16.8343,2.99566
1814.0,14.8931,1.22797
1816.0,16.2497,3.73635
1818.0,16.1867,3.68827
1820.0,14.059,2.15982
1822.0,16.6551,3.40615
1824.0,16.6354,2.91657
1826.0,15.6736,0.819738
1828.0,17.444,2.62778
1830.0,16.9121,3.13478
1832.0,15.3797,1.21956
1834.0,17.9309,2.945
1836.0,17.4575,2.16774
1838.0,16.1358,0.480284
1840.0,18.2256,2.38924
1842.0,17.314,2.67785
1844.0,16.72,0.858882
1846.0,18.7741,1.27567
1848.0,17.0726,2.50369
1850.0,16.9848,1.11693
1852.0,18.6643,1.2134
1854.0,17.3606,2.04588
1856.0,17.5855,1.67592
1858.0,19.3192,1.67443
1860.0,17.9884,1.4847
1862.0,18.6935,2.50571
1864.0,19.8095,1.95213
1866.0,16.931,1.10283
1868.0,17.6336,1.96869
1870.0,18.91,2.93212
1872.0,16.7555,2.03563
1874.0,17.9271,2.03059
1876.0,18.1886,2.14072
1878.0,15.278,1.00374
1880.0,17.116,2.63008
1882.0,17.4163,1.89948
1884.0,15.243,0.98786
1886.0,17.8159,2.61934
1888.0,19.7088,2.50738
1890.0,18.3268,1.15175
1892.0,20.9774,1.13556
1894.0,20.7496,3.38754
1896.0,19.8376,1.3967
1898.0,21.9063,0.671392
1900.0,21.2172,3.48045
1902.0,19.9301,0.944698
1904.0,21.4577,1.55133
1906.0,19.251,4.86428
1908.0,18.079,1.06378
1910.0,18.434,1.80399
1912.0,17.6098,6.72666
1914.0,17.4529,1.26113
1916.0,18.9997,2.40622
1918.0,19.3828,5.16584
1920.0,18.9531,0.43642
1922.0,19.465,1.715
1924.0,19.1349,3.49859
1926.0,19.3611,1.61848
1928.0,20.0836,2.82132
1930.0,18.7567,4.83627
1932.0,18.4127,2.09029
1934.0,18.8066,1.06727
1936.0,17.2979,0.182675
1938.0,18.2884,4.6242
1940.0,18.4275,2.20566
1942.0,17.2745,0.907022
1944.0,18.3221,3.1455
1946.0,18.0554,3.59723
1948.0,17.4579,0.46621
1950.0,19.1684,4.82233
1952.0,19.1621,0.954368
1954.0,17.7872,0.827039
1956.0,20.1117,2.13753
1958.0,20.582,5.79676
1960.0,19.672,2.2494
1962.0,21.4783,0.44972
1964.0,21.7882,4.59945
1966.0,20.8703,0.575845
1968.0,22.361,1.27269
1970.0,22.0451,3.00029
1972.0,20.1304,0.823939
1974.0,20.6396,0.615324
1976.0,19.9444,2.11897
1978.0,20.211,2.43574
1980.0,21.3486,1.24842
1982.0,20.7583,
1984.0,24.4707,
1986.0,24.3078,
1988.0,21.1323,
1990.0,24.8724,
1992.0,22.0506,
1994.0,19.7034,
1996.0,24.873,
1998.0,21.3221,
2000.0,19.8928,
2002.0,25.4436,
2004.0,22.1031,
2006.0,21.5958,
2008.0,25.8644,
2010.0,20.3511,
2012.0,20.5665,
2014.0,24.9175,
2016.0,21.4704,
2017.0,20.5359,